aX,aY,aZ,gX,gY,gZ
0.533,-0.057,1.311,2.987,6.497,3.747
0.548,-0.055,1.329,1.609,-7.871,1.440
0.561,-0.052,1.348,-0.679,-19.204,-0.667
0.575,-0.049,1.366,-3.852,-28.117,-2.605
0.588,-0.048,1.383,-9.364,-34.593,-4.209
0.601,-0.047,1.398,-14.090,-39.068,-5.572
0.614,-0.049,1.412,-18.660,-41.745,-6.683
0.625,-0.053,1.422,-22.512,-42.611,-7.486
0.635,-0.058,1.431,-25.402,-42.677,-7.897
0.643,-0.065,1.438,-27.304,-42.158,-7.811
0.649,-0.071,1.443,-28.108,-41.355,-7.424
0.654,-0.076,1.448,-28.307,-40.315,-6.690
0.656,-0.080,1.451,-28.135,-39.193,-5.562
0.657,-0.082,1.452,-27.765,-38.002,-3.126
0.657,-0.083,1.452,-27.162,-36.769,-1.238
0.655,-0.083,1.451,-26.262,-35.474,0.820
0.653,-0.082,1.446,-25.022,-34.145,2.782
0.649,-0.079,1.439,-24.047,-32.631,4.587
0.645,-0.076,1.431,-23.482,-30.991,6.162
0.641,-0.074,1.422,-23.147,-29.244,7.342
0.636,-0.072,1.411,-22.947,-27.439,8.266
0.631,-0.070,1.399,-22.862,-25.559,8.926
0.626,-0.069,1.386,-22.891,-23.595,9.358
0.620,-0.067,1.373,-22.955,-21.668,9.648
0.614,-0.067,1.358,-22.945,-19.844,9.822
0.608,-0.067,1.344,-22.823,-18.178,9.858
0.601,-0.066,1.330,-22.617,-16.694,9.848
0.595,-0.066,1.315,-22.346,-15.430,9.837
0.589,-0.066,1.301,-21.943,-14.423,9.814
0.584,-0.066,1.286,-21.416,-13.559,9.778
0.579,-0.066,1.271,-20.801,-12.830,9.732
0.575,-0.067,1.255,-20.125,-12.202,9.664
0.572,-0.068,1.239,-19.361,-11.633,9.559
0.569,-0.069,1.224,-18.570,-11.095,9.415
0.566,-0.070,1.209,-17.793,-10.585,9.222
0.564,-0.071,1.195,-17.075,-10.134,8.997
0.562,-0.073,1.181,-16.391,-9.731,8.733
0.560,-0.075,1.167,-15.669,-9.354,8.407
0.558,-0.077,1.154,-14.973,-9.003,8.051
0.557,-0.079,1.142,-14.330,-8.690,7.691
0.555,-0.081,1.131,-13.726,-8.437,7.331
0.554,-0.084,1.119,-13.205,-8.218,6.962
0.552,-0.086,1.109,-12.806,-8.038,6.608
0.551,-0.088,1.098,-12.433,-7.910,6.280
0.550,-0.090,1.089,-12.053,-7.821,5.960
0.550,-0.093,1.080,-11.631,-7.747,5.651
0.549,-0.095,1.071,-11.127,-7.692,5.378
0.548,-0.098,1.063,-10.479,-7.685,5.141
0.547,-0.099,1.055,-9.769,-7.721,4.911
0.547,-0.101,1.047,-9.032,-7.732,4.673
0.546,-0.103,1.040,-8.328,-7.722,4.434
0.546,-0.105,1.034,-7.699,-7.704,4.201
0.545,-0.105,1.029,-7.174,-7.680,3.965
0.544,-0.106,1.023,-6.860,-7.668,3.721
0.544,-0.106,1.019,-6.717,-7.655,3.481
0.543,-0.107,1.014,-6.692,-7.657,3.244
0.543,-0.108,1.010,-6.708,-7.680,3.011
0.542,-0.109,1.006,-6.716,-7.757,2.789
0.541,-0.110,1.002,-6.671,-7.893,2.607
0.541,-0.112,0.998,-6.537,-8.044,2.453
0.540,-0.114,0.994,-6.294,-8.200,2.331
0.540,-0.116,0.990,-5.948,-8.346,2.261
0.539,-0.117,0.985,-5.502,-8.429,2.215
0.539,-0.118,0.982,-5.014,-8.425,2.175
0.538,-0.118,0.978,-4.593,-8.350,2.176
0.538,-0.118,0.975,-4.261,-8.223,2.195
0.537,-0.117,0.973,-4.066,-8.065,2.196
0.536,-0.117,0.971,-4.010,-7.900,2.165
0.536,-0.117,0.969,-4.065,-7.751,2.102
0.535,-0.117,0.968,-4.231,-7.621,2.000
0.534,-0.117,0.967,-4.419,-7.522,1.873
0.534,-0.118,0.965,-4.568,-7.487,1.755
0.534,-0.119,0.963,-4.643,-7.446,1.666
0.533,-0.120,0.961,-4.621,-7.380,1.601
0.533,-0.121,0.959,-4.468,-7.291,1.575
0.533,-0.123,0.957,-4.155,-7.194,1.598
0.533,-0.123,0.955,-3.772,-7.072,1.658
0.532,-0.124,0.953,-3.371,-6.923,1.741
0.532,-0.124,0.952,-3.030,-6.730,1.821
0.531,-0.123,0.951,-2.774,-6.508,1.885
0.530,-0.123,0.950,-2.623,-6.280,1.924
0.529,-0.122,0.949,-2.632,-6.064,1.916
0.528,-0.122,0.949,-2.729,-5.857,1.859
0.527,-0.122,0.948,-2.901,-5.665,1.760
0.526,-0.122,0.947,-3.099,-5.513,1.629
0.525,-0.122,0.946,-3.293,-5.389,1.489
0.525,-0.123,0.944,-3.465,-5.293,1.332
0.524,-0.123,0.942,-3.567,-5.196,1.194
0.524,-0.124,0.939,-3.592,-5.076,1.078
0.524,-0.124,0.937,-3.545,-4.914,0.986
0.524,-0.125,0.935,-3.442,-4.711,0.903
0.524,-0.126,0.933,-3.280,-4.485,0.841
0.523,-0.127,0.931,-3.115,-4.251,0.791
0.523,-0.127,0.930,-3.043,-4.021,0.739
0.523,-0.127,0.928,-3.034,-3.811,0.691
0.522,-0.128,0.927,-3.093,-3.651,0.635
0.522,-0.128,0.926,-3.206,-3.518,0.571
0.522,-0.129,0.924,-3.351,-3.402,0.505
0.522,-0.130,0.923,-3.488,-3.313,0.435
0.522,-0.131,0.920,-3.572,-3.222,0.361
0.522,-0.132,0.918,-3.578,-3.117,0.298
0.522,-0.133,0.916,-3.511,-3.020,0.264
0.521,-0.133,0.914,-3.367,-2.907,0.222
0.521,-0.134,0.912,-3.173,-2.791,0.187
0.521,-0.135,0.910,-2.959,-2.685,0.168
0.520,-0.135,0.909,-2.756,-2.591,0.151
0.520,-0.136,0.908,-2.585,-2.527,0.142
0.519,-0.135,0.906,-2.464,-2.482,0.140
0.519,-0.135,0.905,-2.398,-2.453,0.135
0.518,-0.135,0.904,-2.368,-2.420,0.124
0.518,-0.135,0.902,-2.348,-2.405,0.121
0.518,-0.136,0.901,-2.315,-2.390,0.113
0.518,-0.136,0.899,-2.241,-2.355,0.083
0.518,-0.136,0.898,-2.135,-2.328,0.055
0.518,-0.137,0.897,-2.000,-2.309,0.045
0.518,-0.137,0.895,-1.820,-2.276,0.026
0.518,-0.137,0.894,-1.654,-2.229,0.005
0.518,-0.137,0.893,-1.525,-2.191,-0.009
0.517,-0.137,0.893,-1.432,-2.160,-0.025
0.517,-0.137,0.892,-1.394,-2.126,-0.052
0.517,-0.137,0.892,-1.412,-2.099,-0.078
0.517,-0.137,0.891,-1.475,-2.077,-0.116
0.516,-0.137,0.890,-1.551,-2.053,-0.169
0.516,-0.137,0.890,-1.634,-2.039,-0.226
0.516,-0.137,0.889,-1.702,-2.038,-0.271
0.516,-0.138,0.888,-1.703,-2.040,-0.319
0.516,-0.138,0.888,-1.666,-2.046,-0.362
0.516,-0.138,0.887,-1.590,-2.056,-0.392
0.516,-0.138,0.886,-1.516,-2.057,-0.420
0.515,-0.139,0.885,-1.451,-2.050,-0.449
0.515,-0.139,0.884,-1.397,-2.037,-0.474
0.515,-0.139,0.884,-1.378,-2.027,-0.494
0.515,-0.139,0.884,-1.395,-2.025,-0.516
0.514,-0.139,0.883,-1.444,-2.027,-0.546
0.514,-0.139,0.883,-1.527,-2.035,-0.574
0.514,-0.139,0.883,-1.627,-2.048,-0.605
0.514,-0.139,0.883,-1.710,-2.080,-0.640
0.513,-0.139,0.882,-1.777,-2.154,-0.660
0.513,-0.140,0.881,-1.806,-2.215,-0.675
0.514,-0.140,0.880,-1.789,-2.238,-0.689
0.514,-0.140,0.880,-1.709,-2.240,-0.685
0.514,-0.141,0.880,-1.611,-2.242,-0.661
0.514,-0.141,0.879,-1.520,-2.240,-0.633
0.514,-0.140,0.879,-1.474,-2.226,-0.615
0.514,-0.140,0.880,-1.468,-2.210,-0.610
0.513,-0.140,0.880,-1.509,-2.193,-0.621
0.513,-0.140,0.880,-1.580,-2.180,-0.645
0.513,-0.140,0.881,-1.664,-2.165,-0.685
0.513,-0.140,0.881,-1.763,-2.166,-0.728
0.513,-0.140,0.881,-1.858,-2.176,-0.765
0.513,-0.141,0.880,-1.921,-2.162,-0.808
0.513,-0.141,0.880,-1.930,-2.130,-0.834
0.513,-0.141,0.880,-1.911,-2.087,-0.836
0.513,-0.141,0.880,-1.876,-2.041,-0.833
0.513,-0.141,0.879,-1.822,-1.989,-0.819
0.513,-0.141,0.880,-1.769,-1.933,-0.787
0.513,-0.141,0.880,-1.728,-1.882,-0.765
0.513,-0.141,0.880,-1.716,-1.838,-0.756
0.513,-0.141,0.881,-1.741,-1.816,-0.758
0.513,-0.141,0.881,-1.805,-1.808,-0.760
0.512,-0.141,0.882,-1.893,-1.810,-0.770
0.513,-0.141,0.882,-1.975,-1.820,-0.790
0.512,-0.141,0.881,-2.039,-1.822,-0.800
0.513,-0.142,0.881,-2.068,-1.783,-0.801
0.513,-0.142,0.881,-2.073,-1.709,-0.789
0.513,-0.142,0.881,-2.042,-1.615,-0.758
0.512,-0.142,0.881,-1.991,-1.523,-0.721
0.512,-0.142,0.881,-1.920,-1.428,-0.673
0.512,-0.142,0.881,-1.846,-1.336,-0.629
0.512,-0.142,0.881,-1.784,-1.254,-0.605
0.511,-0.142,0.882,-1.728,-1.203,-0.594
0.511,-0.142,0.882,-1.692,-1.183,-0.578
0.511,-0.142,0.882,-1.680,-1.207,-0.573
0.511,-0.143,0.882,-1.680,-1.235,-0.588
0.511,-0.143,0.882,-1.688,-1.244,-0.624
0.511,-0.143,0.881,-1.703,-1.241,-0.661
0.511,-0.143,0.881,-1.697,-1.217,-0.675
0.511,-0.143,0.881,-1.688,-1.165,-0.679
0.511,-0.143,0.881,-1.686,-1.103,-0.672
0.511,-0.144,0.881,-1.688,-1.047,-0.639
0.510,-0.144,0.880,-1.666,-1.000,-0.597
0.510,-0.144,0.880,-1.648,-0.935,-0.554
0.510,-0.144,0.880,-1.645,-0.866,-0.504
0.510,-0.144,0.880,-1.630,-0.826,-0.447
0.510,-0.145,0.880,-1.601,-0.807,-0.399
0.510,-0.145,0.879,-1.561,-0.798,-0.390
0.510,-0.145,0.879,-1.536,-0.805,-0.393
0.509,-0.146,0.879,-1.512,-0.842,-0.397
0.510,-0.146,0.878,-1.477,-0.850,-0.403
0.510,-0.147,0.878,-1.440,-0.824,-0.413
0.510,-0.147,0.878,-1.429,-0.774,-0.411
0.511,-0.147,0.878,-1.456,-0.721,-0.397
0.511,-0.147,0.878,-1.518,-0.656,-0.371
0.511,-0.148,0.879,-1.611,-0.582,-0.334
0.511,-0.148,0.879,-1.741,-0.510,-0.285
0.511,-0.149,0.880,-1.915,-0.451,-0.196
0.511,-0.150,0.880,-2.074,-0.379,-0.080
0.512,-0.150,0.881,-2.189,-0.279,0.049
0.512,-0.151,0.881,-2.243,-0.158,0.231

0.362,-0.168,1.376,-6.008,-18.952,-3.346
0.374,-0.172,1.392,-9.828,-34.416,-6.488
0.388,-0.179,1.406,-12.797,-46.954,-9.111
0.403,-0.185,1.418,-14.693,-56.270,-11.303
0.417,-0.190,1.428,-15.747,-63.545,-13.187
0.432,-0.194,1.434,-16.007,-69.120,-14.625
0.446,-0.198,1.439,-15.931,-73.300,-15.697
0.456,-0.199,1.443,-15.657,-76.406,-16.404
0.467,-0.199,1.448,-15.291,-78.871,-16.799
0.476,-0.198,1.453,-14.171,-80.687,-16.871
0.485,-0.198,1.459,-13.589,-82.138,-16.772
0.492,-0.197,1.463,-13.034,-83.054,-16.482
0.498,-0.194,1.465,-12.557,-83.456,-16.085
0.503,-0.192,1.465,-12.190,-83.549,-15.626
0.508,-0.189,1.464,-11.952,-83.171,-15.107
0.513,-0.186,1.461,-11.829,-82.437,-14.634
0.517,-0.183,1.457,-11.791,-81.312,-14.239
0.521,-0.180,1.451,-11.812,-79.959,-13.950
0.525,-0.178,1.444,-11.916,-78.437,-13.786
0.529,-0.177,1.435,-12.113,-76.804,-13.676
0.531,-0.175,1.425,-12.279,-75.141,-13.568
0.531,-0.174,1.416,-12.321,-73.585,-13.400
0.530,-0.173,1.408,-12.192,-72.170,-13.126
0.529,-0.173,1.401,-11.884,-70.846,-12.731
0.528,-0.172,1.394,-11.481,-69.541,-12.253
0.527,-0.172,1.385,-10.926,-68.272,-11.627
0.527,-0.170,1.375,-10.257,-66.972,-10.814
0.528,-0.168,1.364,-9.547,-65.584,-9.925
0.530,-0.165,1.354,-8.816,-64.125,-9.099
0.530,-0.162,1.343,-8.218,-62.627,-8.395
0.530,-0.159,1.329,-7.864,-61.069,-7.784
0.532,-0.156,1.319,-7.715,-59.501,-7.270
0.533,-0.154,1.308,-7.698,-57.964,-6.919
0.533,-0.150,1.298,-7.827,-56.462,-6.661
0.533,-0.147,1.289,-8.010,-55.004,-6.459
0.533,-0.146,1.279,-8.169,-53.602,-6.307
0.534,-0.144,1.270,-8.269,-52.261,-6.199
0.533,-0.143,1.261,-8.353,-51.008,-6.101
0.533,-0.143,1.251,-8.424,-49.837,-5.978
0.532,-0.142,1.241,-8.425,-48.719,-5.832
0.533,-0.142,1.230,-8.322,-47.610,-5.657
0.533,-0.141,1.220,-8.099,-46.508,-5.443
0.533,-0.140,1.210,-7.743,-45.382,-5.210
0.534,-0.140,1.200,-7.329,-44.236,-5.000
0.534,-0.139,1.190,-6.911,-43.078,-4.817
0.535,-0.137,1.181,-6.589,-41.937,-4.661
0.535,-0.136,1.173,-6.432,-40.829,-5.063
0.536,-0.135,1.165,-6.482,-39.749,-4.979
0.536,-0.134,1.157,-6.632,-38.704,-4.927
0.537,-0.133,1.150,-6.845,-37.712,-4.886
0.538,-0.133,1.143,-7.050,-36.764,-4.853
0.538,-0.134,1.136,-7.174,-35.838,-4.828
0.539,-0.134,1.127,-7.204,-34.917,-4.788
0.540,-0.135,1.119,-7.125,-33.988,-4.725
0.541,-0.135,1.110,-6.945,-33.061,-4.644
0.542,-0.135,1.102,-6.691,-32.145,-4.561
0.543,-0.135,1.094,-6.383,-31.201,-4.451
0.544,-0.135,1.087,-6.044,-30.264,-4.333
0.545,-0.135,1.080,-5.721,-29.354,-4.197
0.545,-0.134,1.074,-5.460,-28.478,-4.078
0.546,-0.134,1.068,-5.285,-27.637,-3.966
0.546,-0.135,1.063,-5.164,-26.831,-3.864
0.547,-0.136,1.059,-5.088,-26.095,-3.783
0.547,-0.136,1.054,-5.071,-25.412,-3.711
0.547,-0.137,1.049,-5.089,-24.762,-3.669
0.548,-0.138,1.044,-5.111,-24.134,-3.635
0.549,-0.138,1.038,-5.107,-23.500,-3.603
0.549,-0.138,1.031,-5.070,-22.856,-3.567
0.550,-0.138,1.025,-5.009,-22.186,-3.525
0.550,-0.137,1.018,-4.951,-21.501,-3.479
0.551,-0.137,1.012,-4.900,-20.807,-3.410
0.552,-0.137,1.006,-4.866,-20.079,-3.324
0.552,-0.137,1.002,-4.845,-19.354,-3.259
0.552,-0.137,0.997,-4.837,-18.662,-3.208
0.553,-0.138,0.993,-4.858,-18.016,-3.143
0.553,-0.138,0.989,-4.898,-17.427,-3.083
0.553,-0.139,0.986,-4.958,-16.893,-3.027
0.553,-0.140,0.982,-5.025,-16.412,-2.980
0.553,-0.141,0.978,-5.073,-15.974,-2.939
0.553,-0.142,0.974,-5.102,-15.568,-2.910
0.553,-0.142,0.970,-5.142,-15.176,-2.885
0.554,-0.142,0.964,-5.173,-14.762,-2.854
0.554,-0.142,0.959,-5.205,-14.312,-2.806
0.554,-0.142,0.955,-5.236,-13.829,-2.756
0.554,-0.143,0.951,-5.238,-13.344,-2.701
0.554,-0.143,0.947,-5.216,-12.864,-2.648
0.553,-0.144,0.944,-5.186,-12.412,-2.607
0.553,-0.144,0.941,-5.155,-12.005,-2.569
0.552,-0.145,0.939,-5.121,-11.645,-2.552
0.552,-0.145,0.936,-5.095,-11.326,-2.551
0.552,-0.147,0.934,-5.055,-11.053,-2.552
0.551,-0.148,0.932,-5.016,-10.825,-2.558
0.551,-0.148,0.929,-4.985,-10.620,-2.572
0.551,-0.149,0.927,-4.979,-10.441,-2.582
0.551,-0.149,0.924,-4.969,-10.259,-2.578
0.551,-0.149,0.920,-4.956,-10.034,-2.566
0.551,-0.149,0.917,-4.933,-9.728,-2.555
0.551,-0.150,0.915,-4.888,-9.386,-2.535
0.551,-0.150,0.912,-4.815,-9.034,-2.491
0.550,-0.150,0.911,-4.710,-8.681,-2.449
0.550,-0.151,0.909,-4.587,-8.355,-2.404
0.549,-0.151,0.908,-4.461,-8.099,-2.373
0.548,-0.152,0.906,-4.364,-7.867,-2.375
0.548,-0.152,0.905,-4.330,-7.690,-2.407
0.547,-0.153,0.903,-4.328,-7.577,-2.439
0.547,-0.154,0.901,-4.307,-7.493,-2.486
0.547,-0.155,0.899,-4.273,-7.393,-2.543
0.547,-0.155,0.896,-4.228,-7.281,-2.589
0.547,-0.156,0.894,-4.148,-7.192,-2.625
0.547,-0.157,0.892,-4.035,-7.093,-2.642
0.547,-0.157,0.889,-3.882,-6.952,-2.648
0.547,-0.158,0.887,-3.702,-6.743,-2.647
0.547,-0.158,0.885,-3.529,-6.522,-2.629
0.547,-0.158,0.884,-3.404,-6.322,-2.601
0.547,-0.159,0.883,-3.323,-6.147,-2.577
0.546,-0.160,0.882,-3.285,-6.025,-2.545
0.546,-0.160,0.880,-3.269,-5.961,-2.514
0.546,-0.161,0.878,-3.260,-5.905,-2.488
0.546,-0.161,0.877,-3.245,-5.861,-2.462
0.546,-0.162,0.875,-3.209,-5.815,-2.429
0.546,-0.162,0.874,-3.127,-5.787,-2.403
0.546,-0.163,0.873,-3.023,-5.772,-2.370
0.546,-0.164,0.871,-2.904,-5.739,-2.331
0.546,-0.164,0.869,-2.770,-5.680,-2.298
0.546,-0.164,0.868,-2.663,-5.584,-2.266
0.547,-0.164,0.867,-2.613,-5.474,-2.237
0.547,-0.163,0.866,-2.624,-5.373,-2.208
0.547,-0.163,0.865,-2.669,-5.291,-2.191
0.547,-0.163,0.864,-2.739,-5.208,-2.183
0.547,-0.164,0.864,-2.831,-5.139,-2.157
0.547,-0.164,0.863,-2.898,-5.110,-2.124
0.547,-0.165,0.863,-2.930,-5.098,-2.087
0.547,-0.165,0.863,-2.915,-5.089,-2.034
0.547,-0.165,0.863,-2.870,-5.089,-1.970
0.547,-0.166,0.862,-2.814,-5.086,-1.890
0.547,-0.166,0.861,-2.750,-5.057,-1.809
0.547,-0.166,0.860,-2.681,-4.984,-1.724
0.547,-0.166,0.859,-2.623,-4.893,-1.623
0.547,-0.165,0.859,-2.570,-4.788,-1.535
0.547,-0.165,0.859,-2.547,-4.676,-1.464
0.547,-0.165,0.859,-2.554,-4.578,-1.409
0.547,-0.165,0.859,-2.599,-4.504,-1.379
0.547,-0.165,0.859,-2.662,-4.453,-1.363
0.547,-0.165,0.859,-2.724,-4.430,-1.353
0.547,-0.166,0.859,-2.772,-4.443,-1.345
0.546,-0.166,0.858,-2.800,-4.468,-1.341
0.546,-0.166,0.858,-2.780,-4.499,-1.329
0.546,-0.166,0.857,-2.755,-4.508,-1.300
0.546,-0.166,0.856,-2.739,-4.508,-1.261
0.546,-0.165,0.855,-2.721,-4.475,-1.214
0.546,-0.165,0.855,-2.704,-4.413,-1.174
0.546,-0.165,0.854,-2.687,-4.334,-1.129
0.546,-0.165,0.854,-2.674,-4.253,-1.091
0.546,-0.165,0.855,-2.680,-4.181,-1.073
0.546,-0.165,0.855,-2.681,-4.121,-1.066
0.547,-0.166,0.855,-2.684,-4.073,-1.067
0.547,-0.165,0.855,-2.695,-4.035,-1.087
0.547,-0.165,0.855,-2.721,-4.014,-1.107
0.547,-0.165,0.855,-2.762,-4.018,-1.128
0.547,-0.166,0.854,-2.794,-4.013,-1.142
0.548,-0.166,0.853,-2.800,-3.966,-1.152
0.548,-0.165,0.853,-2.780,-3.878,-1.137
0.548,-0.165,0.852,-2.747,-3.770,-1.110
0.548,-0.165,0.853,-2.703,-3.668,-1.074
0.548,-0.166,0.853,-2.656,-3.589,-1.028
0.548,-0.166,0.853,-2.615,-3.496,-1.005
0.549,-0.166,0.853,-2.560,-3.405,-0.976
0.549,-0.166,0.853,-2.509,-3.320,-0.945
0.549,-0.165,0.853,-2.496,-3.229,-0.932
0.549,-0.165,0.853,-2.516,-3.143,-0.924
0.549,-0.165,0.854,-2.556,-3.082,-0.936
0.549,-0.165,0.854,-2.594,-3.059,-0.959
0.548,-0.165,0.854,-2.623,-3.077,-0.993
0.548,-0.166,0.853,-2.612,-3.083,-1.036
0.549,-0.166,0.851,-2.541,-3.066,-1.071
0.549,-0.166,0.851,-2.452,-3.022,-1.096
0.549,-0.166,0.850,-2.369,-2.960,-1.132
0.549,-0.166,0.850,-2.295,-2.903,-1.164
0.549,-0.166,0.850,-2.236,-2.863,-1.203
0.549,-0.166,0.850,-2.226,-2.842,-1.266
0.549,-0.166,0.850,-2.261,-2.865,-1.329
0.549,-0.166,0.850,-2.314,-2.939,-1.392
0.549,-0.166,0.849,-2.345,-2.977,-1.463
0.550,-0.166,0.847,-2.314,-2.978,-1.516
0.550,-0.166,0.847,-2.213,-2.944,-1.552
0.550,-0.166,0.846,-2.121,-2.885,-1.585
0.550,-0.166,0.846,-2.056,-2.812,-1.613
0.551,-0.166,0.846,-2.015,-2.748,-1.629
0.551,-0.167,0.846,-2.000,-2.697,-1.647
0.551,-0.167,0.845,-1.987,-2.649,-1.646
0.551,-0.167,0.844,-1.973,-2.594,-1.638
0.551,-0.167,0.844,-1.955,-2.533,-1.617
0.551,-0.167,0.844,-1.927,-2.476,-1.596
0.552,-0.167,0.844,-1.888,-2.433,-1.575
0.552,-0.168,0.845,-1.846,-2.401,-1.565
0.552,-0.168,0.845,-1.802,-2.383,-1.566
0.552,-0.169,0.845,-1.756,-2.395,-1.571
0.552,-0.169,0.845,-1.714,-2.422,-1.581
0.552,-0.169,0.844,-1.678,-2.448,-1.585

0.171,-0.181,1.555,-9.965,-13.560,-5.481
0.180,-0.191,1.571,-16.634,-21.994,-8.880
0.189,-0.203,1.582,-21.264,-27.834,-11.722
0.199,-0.216,1.590,-24.185,-32.069,-13.906
0.209,-0.229,1.594,-25.643,-35.194,-15.385
0.218,-0.238,1.594,-26.423,-37.682,-16.371
0.226,-0.247,1.593,-26.692,-39.855,-16.970
0.232,-0.254,1.592,-26.627,-41.964,-17.205
0.236,-0.260,1.591,-26.329,-44.283,-17.197
0.239,-0.265,1.590,-25.765,-46.752,-17.004
0.241,-0.269,1.588,-25.023,-49.158,-16.753
0.244,-0.272,1.583,-24.234,-51.297,-16.490
0.246,-0.272,1.576,-23.497,-53.326,-16.227
0.248,-0.270,1.565,-22.880,-55.107,-15.988
0.250,-0.265,1.554,-22.432,-56.558,-15.897
0.253,-0.262,1.541,-22.081,-57.597,-15.901
0.257,-0.259,1.527,-21.774,-58.247,-16.010
0.261,-0.257,1.512,-21.461,-58.678,-16.152
0.266,-0.256,1.498,-21.094,-59.005,-16.248
0.269,-0.255,1.485,-20.641,-59.382,-16.272
0.272,-0.254,1.474,-20.130,-59.892,-16.223
0.275,-0.253,1.463,-19.570,-60.637,-16.106
0.278,-0.253,1.451,-18.988,-61.382,-15.921
0.281,-0.253,1.440,-18.417,-62.109,-15.672
0.285,-0.253,1.428,-17.881,-62.699,-15.390
0.289,-0.252,1.417,-17.361,-62.991,-15.102
0.293,-0.250,1.405,-16.839,-63.101,-14.835
0.297,-0.248,1.394,-16.274,-63.012,-14.609
0.301,-0.246,1.382,-15.681,-62.749,-14.439
0.305,-0.244,1.370,-15.082,-62.344,-14.320
0.309,-0.242,1.359,-14.479,-61.831,-14.234
0.312,-0.241,1.350,-13.890,-61.309,-14.165
0.315,-0.241,1.342,-13.377,-60.864,-14.118
0.319,-0.241,1.335,-12.985,-60.500,-14.064
0.323,-0.241,1.327,-12.678,-60.138,-14.033
0.327,-0.241,1.319,-12.417,-59.753,-14.008
0.331,-0.241,1.311,-12.175,-59.290,-13.959
0.336,-0.241,1.303,-11.884,-58.754,-13.890
0.341,-0.240,1.296,-11.553,-58.131,-13.801
0.347,-0.240,1.288,-11.167,-57.360,-13.710
0.352,-0.239,1.281,-10.786,-56.479,-13.602
0.357,-0.238,1.273,-10.352,-55.543,-13.478
0.361,-0.237,1.265,-9.870,-54.613,-13.339
0.366,-0.237,1.259,-9.423,-53.682,-13.199
0.370,-0.236,1.253,-9.120,-52.774,-13.055
0.374,-0.236,1.247,-8.930,-51.895,-12.894
0.379,-0.237,1.241,-8.836,-51.066,-12.712
0.383,-0.237,1.234,-8.820,-50.260,-12.516
0.388,-0.236,1.228,-8.870,-49.442,-12.329
0.393,-0.235,1.222,-8.936,-48.602,-12.116
0.398,-0.235,1.215,-8.956,-47.759,-11.868
0.403,-0.234,1.207,-8.910,-46.895,-11.599
0.408,-0.234,1.200,-8.768,-45.968,-11.302
0.412,-0.234,1.192,-8.530,-45.010,-10.964
0.416,-0.234,1.183,-8.196,-44.034,-10.591
0.420,-0.233,1.175,-7.795,-43.033,-10.196
0.424,-0.231,1.168,-7.436,-42.019,-9.788
0.427,-0.230,1.161,-7.126,-41.035,-9.380
0.429,-0.229,1.155,-6.867,-40.094,-8.990
0.432,-0.228,1.149,-6.684,-39.200,-8.617
0.434,-0.227,1.143,-6.604,-38.347,-8.287
0.436,-0.226,1.137,-6.583,-37.506,-8.013
0.439,-0.225,1.130,-6.583,-36.655,-7.791
0.441,-0.223,1.123,-6.603,-35.794,-7.602
0.443,-0.222,1.116,-6.610,-34.928,-7.461
0.446,-0.221,1.109,-6.622,-34.056,-7.336
0.448,-0.219,1.103,-6.643,-33.192,-7.217
0.450,-0.218,1.096,-6.688,-32.349,-7.118
0.452,-0.217,1.090,-6.752,-31.529,-7.054
0.454,-0.217,1.083,-6.834,-30.727,-6.993
0.456,-0.216,1.076,-6.913,-29.961,-6.941
0.458,-0.216,1.070,-6.961,-29.255,-6.879
0.460,-0.216,1.065,-6.949,-28.599,-6.817
0.462,-0.217,1.060,-6.883,-27.989,-6.757
0.464,-0.217,1.055,-6.774,-27.401,-6.690
0.466,-0.218,1.050,-6.630,-26.841,-6.617
0.468,-0.218,1.045,-6.472,-26.276,-6.550
0.470,-0.218,1.040,-6.342,-25.703,-6.484
0.472,-0.217,1.035,-6.260,-25.111,-6.420
0.474,-0.217,1.030,-6.211,-24.500,-6.365
0.476,-0.216,1.025,-6.184,-23.862,-6.314
0.478,-0.216,1.020,-6.170,-23.206,-6.262
0.480,-0.215,1.016,-6.149,-22.539,-6.213
0.481,-0.216,1.011,-6.108,-21.906,-6.165
0.483,-0.216,1.007,-6.034,-21.318,-6.113
0.484,-0.217,1.004,-5.938,-20.778,-6.063
0.485,-0.218,1.000,-5.817,-20.279,-6.006
0.487,-0.219,0.996,-5.662,-19.818,-5.948
0.488,-0.219,0.992,-5.494,-19.393,-5.888
0.489,-0.220,0.988,-5.350,-19.001,-5.811
0.491,-0.220,0.984,-5.231,-18.598,-5.728
0.492,-0.220,0.980,-5.135,-18.174,-5.631
0.494,-0.220,0.975,-5.057,-17.710,-5.532
0.495,-0.220,0.971,-4.984,-17.204,-5.428
0.496,-0.220,0.968,-4.898,-16.640,-5.327
0.497,-0.220,0.965,-4.804,-16.070,-5.232
0.498,-0.221,0.962,-4.716,-15.518,-5.148
0.499,-0.221,0.959,-4.607,-14.996,-5.072
0.499,-0.222,0.956,-4.486,-14.531,-4.995
0.499,-0.222,0.953,-4.339,-14.133,-4.924
0.500,-0.223,0.950,-4.169,-13.777,-4.853
0.500,-0.224,0.947,-3.969,-13.458,-4.786
0.500,-0.224,0.944,-3.807,-13.150,-4.726
0.501,-0.224,0.940,-3.698,-12.839,-4.671
0.501,-0.224,0.937,-3.632,-12.509,-4.608
0.502,-0.224,0.934,-3.591,-12.150,-4.544
0.503,-0.225,0.931,-3.556,-11.757,-4.491
0.503,-0.225,0.929,-3.545,-11.355,-4.446
0.504,-0.225,0.927,-3.547,-10.968,-4.398
0.504,-0.226,0.925,-3.548,-10.613,-4.360
0.504,-0.227,0.922,-3.527,-10.277,-4.323
0.505,-0.227,0.920,-3.493,-9.973,-4.283
0.505,-0.228,0.918,-3.455,-9.707,-4.241
0.506,-0.229,0.916,-3.411,-9.485,-4.195
0.506,-0.229,0.913,-3.365,-9.316,-4.143
0.506,-0.230,0.911,-3.302,-9.161,-4.092
0.507,-0.230,0.908,-3.252,-8.987,-4.048
0.507,-0.230,0.905,-3.186,-8.793,-3.993
0.507,-0.230,0.903,-3.104,-8.589,-3.927
0.508,-0.230,0.901,-3.018,-8.374,-3.862
0.508,-0.230,0.898,-2.952,-8.159,-3.792
0.508,-0.231,0.896,-2.854,-7.927,-3.722
0.509,-0.231,0.894,-2.744,-7.675,-3.653
0.509,-0.231,0.893,-2.653,-7.444,-3.588
0.510,-0.231,0.892,-2.584,-7.247,-3.534
0.510,-0.231,0.891,-2.539,-7.082,-3.488
0.510,-0.231,0.890,-2.527,-6.961,-3.447
0.510,-0.231,0.888,-2.530,-6.875,-3.416
0.511,-0.231,0.886,-2.522,-6.803,-3.386
0.511,-0.232,0.884,-2.497,-6.733,-3.349
0.511,-0.232,0.883,-2.454,-6.649,-3.300
0.511,-0.231,0.882,-2.397,-6.563,-3.242
0.512,-0.232,0.881,-2.326,-6.481,-3.184
0.512,-0.232,0.880,-2.250,-6.401,-3.122
0.512,-0.231,0.878,-2.176,-6.310,-3.042
0.512,-0.231,0.877,-2.092,-6.182,-2.956
0.513,-0.231,0.876,-1.985,-6.036,-2.877
0.513,-0.231,0.875,-1.872,-5.887,-2.801
0.513,-0.231,0.874,-1.791,-5.744,-2.743
0.513,-0.231,0.874,-1.746,-5.604,-2.708
0.514,-0.232,0.874,-1.744,-5.479,-2.687
0.514,-0.232,0.874,-1.769,-5.368,-2.667
0.514,-0.232,0.873,-1.813,-5.286,-2.642
0.514,-0.233,0.873,-1.862,-5.223,-2.605
0.514,-0.233,0.872,-1.877,-5.162,-2.548
0.514,-0.233,0.872,-1.869,-5.096,-2.474
0.515,-0.233,0.872,-1.848,-5.036,-2.380
0.515,-0.233,0.871,-1.810,-4.966,-2.268
0.515,-0.233,0.871,-1.746,-4.848,-2.160
0.515,-0.233,0.871,-1.654,-4.705,-2.035
0.515,-0.233,0.871,-1.541,-4.556,-1.911
0.515,-0.233,0.871,-1.441,-4.408,-1.800
0.515,-0.233,0.871,-1.364,-4.267,-1.704
0.515,-0.233,0.870,-1.309,-4.123,-1.626
0.515,-0.233,0.870,-1.290,-3.981,-1.565
0.515,-0.233,0.870,-1.295,-3.844,-1.515
0.515,-0.232,0.869,-1.311,-3.725,-1.468
0.514,-0.232,0.869,-1.343,-3.615,-1.419
0.514,-0.232,0.869,-1.362,-3.507,-1.365
0.514,-0.233,0.868,-1.367,-3.401,-1.300
0.514,-0.232,0.868,-1.368,-3.301,-1.233
0.514,-0.233,0.867,-1.374,-3.208,-1.161
0.514,-0.233,0.866,-1.365,-3.091,-1.092
0.515,-0.233,0.865,-1.325,-2.945,-1.026
0.515,-0.233,0.865,-1.283,-2.783,-0.964
0.515,-0.232,0.865,-1.257,-2.625,-0.913
0.514,-0.232,0.864,-1.263,-2.499,-0.861
0.514,-0.232,0.864,-1.286,-2.399,-0.828
0.514,-0.232,0.863,-1.312,-2.310,-0.801
0.513,-0.232,0.863,-1.330,-2.235,-0.778
0.513,-0.233,0.863,-1.322,-2.179,-0.754
0.513,-0.233,0.862,-1.297,-2.157,-0.729
0.512,-0.233,0.862,-1.260,-2.148,-0.697
0.512,-0.233,0.862,-1.218,-2.132,-0.664
0.512,-0.233,0.861,-1.168,-2.104,-0.632
0.512,-0.232,0.860,-1.119,-2.046,-0.603
0.512,-0.232,0.859,-1.075,-1.958,-0.573
0.512,-0.231,0.859,-1.051,-1.845,-0.543
0.512,-0.231,0.858,-1.039,-1.723,-0.522
0.512,-0.231,0.858,-1.025,-1.599,-0.503
0.512,-0.231,0.858,-1.026,-1.494,-0.491
0.512,-0.231,0.859,-1.031,-1.403,-0.486
0.512,-0.231,0.859,-1.041,-1.340,-0.491
0.512,-0.231,0.859,-1.055,-1.300,-0.490
0.512,-0.231,0.859,-1.049,-1.283,-0.486
0.512,-0.231,0.859,-1.023,-1.275,-0.484
0.512,-0.231,0.858,-0.994,-1.254,-0.483
0.512,-0.231,0.858,-0.946,-1.219,-0.477
0.512,-0.231,0.858,-0.901,-1.166,-0.472
0.512,-0.231,0.857,-0.882,-1.091,-0.466
0.512,-0.230,0.857,-0.876,-1.008,-0.463
0.511,-0.230,0.857,-0.891,-0.918,-0.463
0.511,-0.230,0.857,-0.915,-0.832,-0.473
0.511,-0.230,0.858,-0.957,-0.764,-0.484
0.511,-0.230,0.858,-0.989,-0.724,-0.490
0.511,-0.230,0.858,-1.019,-0.702,-0.497
0.511,-0.230,0.858,-1.038,-0.691,-0.499
0.511,-0.230,0.859,-1.016,-0.701,-0.487
0.510,-0.230,0.859,-0.961,-0.710,-0.484

0.445,-0.172,1.283,-1.226,-19.137,-6.397
0.461,-0.177,1.300,-1.310,-31.745,-11.513
0.476,-0.181,1.316,-1.336,-44.067,-15.951
0.492,-0.186,1.332,-1.452,-54.749,-19.857
0.507,-0.191,1.346,-1.765,-64.034,-23.102
0.523,-0.196,1.358,-2.422,-72.326,-25.871
0.538,-0.201,1.369,-3.396,-79.957,-28.117
0.552,-0.205,1.379,-4.576,-87.051,-29.925
0.565,-0.207,1.387,-5.778,-93.126,-31.340
0.578,-0.208,1.394,-6.675,-98.167,-32.318
0.590,-0.209,1.400,-7.199,-102.113,-32.940
0.601,-0.209,1.404,-7.394,-104.397,-33.176
0.612,-0.207,1.407,-7.354,-105.532,-33.179
0.621,-0.205,1.409,-6.540,-105.663,-32.962
0.629,-0.202,1.410,-6.321,-105.032,-32.572
0.636,-0.198,1.411,-6.194,-103.896,-32.090
0.641,-0.194,1.410,-6.240,-102.458,-31.562
0.645,-0.190,1.409,-6.474,-100.960,-31.010
0.648,-0.187,1.407,-6.850,-99.453,-30.395
0.650,-0.185,1.404,-7.298,-97.998,-29.732
0.650,-0.182,1.402,-7.733,-96.579,-29.049
0.648,-0.179,1.399,-8.119,-95.190,-28.320
0.646,-0.175,1.394,-8.401,-93.758,-27.554
0.645,-0.170,1.387,-8.497,-92.065,-26.793
0.642,-0.164,1.379,-8.441,-90.268,-25.936
0.641,-0.160,1.370,-8.179,-88.277,-25.069
0.640,-0.154,1.362,-7.789,-86.209,-24.225
0.638,-0.153,1.354,-7.312,-84.153,-23.398
0.637,-0.150,1.347,-6.891,-82.129,-22.697
0.636,-0.146,1.339,-6.715,-80.151,-22.099
0.635,-0.142,1.330,-6.821,-78.241,-21.615
0.633,-0.140,1.321,-7.202,-76.432,-21.198
0.630,-0.138,1.311,-7.809,-74.762,-20.806
0.627,-0.137,1.301,-8.462,-73.239,-20.428
0.624,-0.135,1.291,-9.012,-71.824,-20.052
0.623,-0.135,1.280,-9.297,-70.417,-19.667
0.621,-0.134,1.269,-9.195,-68.988,-19.229
0.621,-0.133,1.257,-8.797,-67.497,-18.703
0.621,-0.132,1.246,-8.149,-65.923,-18.108
0.622,-0.131,1.235,-7.273,-64.345,-17.503
0.622,-0.130,1.225,-6.279,-62.781,-16.921
0.622,-0.129,1.216,-5.441,-61.196,-16.377
0.623,-0.128,1.207,-4.867,-59.596,-15.869
0.624,-0.128,1.199,-4.560,-58.032,-15.390
0.625,-0.128,1.190,-4.464,-56.564,-14.953
0.626,-0.128,1.181,-4.570,-55.196,-14.543
0.626,-0.129,1.172,-4.801,-53.872,-14.170
0.627,-0.129,1.163,-5.109,-52.586,-13.819
0.628,-0.130,1.153,-5.397,-51.325,-12.822
0.630,-0.130,1.144,-5.599,-50.085,-12.436
0.631,-0.130,1.134,-5.716,-48.794,-12.011
0.632,-0.130,1.124,-5.749,-47.413,-11.547
0.633,-0.130,1.114,-5.715,-46.013,-11.034
0.633,-0.130,1.105,-5.649,-44.594,-10.481
0.634,-0.130,1.095,-5.557,-43.199,-9.904
0.634,-0.130,1.087,-5.450,-41.861,-9.320
0.634,-0.130,1.079,-5.331,-40.614,-8.748
0.635,-0.131,1.071,-5.228,-39.438,-8.191
0.635,-0.131,1.063,-5.136,-38.328,-7.662
0.635,-0.131,1.055,-5.058,-37.289,-7.159
0.635,-0.131,1.047,-4.990,-36.275,-6.679
0.635,-0.130,1.039,-4.938,-35.274,-6.238
0.635,-0.130,1.032,-4.916,-34.265,-5.828
0.635,-0.130,1.024,-4.893,-33.232,-5.448
0.635,-0.129,1.016,-4.830,-32.187,-5.093
0.636,-0.129,1.009,-4.745,-31.137,-4.759
0.636,-0.129,1.002,-4.644,-30.117,-4.436
0.636,-0.128,0.996,-4.546,-29.153,-4.134
0.635,-0.128,0.990,-4.466,-28.263,-3.841
0.635,-0.128,0.984,-4.405,-27.452,-3.551
0.635,-0.128,0.978,-4.371,-26.687,-3.269
0.635,-0.128,0.973,-4.355,-25.958,-2.992
0.635,-0.128,0.967,-4.322,-25.265,-2.708
0.635,-0.128,0.961,-4.259,-24.581,-2.429
0.635,-0.128,0.956,-4.160,-23.876,-2.151
0.635,-0.128,0.950,-4.011,-23.158,-1.883
0.636,-0.129,0.944,-3.815,-22.425,-1.618
0.635,-0.129,0.939,-3.583,-21.683,-1.354
0.635,-0.129,0.935,-3.349,-20.958,-1.096
0.631,-0.129,0.931,-3.114,-20.273,-0.847
0.631,-0.130,0.927,-2.885,-19.646,-0.612
0.630,-0.130,0.923,-2.696,-19.097,-0.398
0.630,-0.130,0.920,-2.566,-18.631,-0.195
0.630,-0.130,0.916,-2.463,-18.220,-0.006
0.630,-0.130,0.911,-2.371,-17.813,0.175
0.630,-0.130,0.907,-2.280,-17.397,0.343
0.630,-0.130,0.902,-2.166,-16.970,0.500
0.630,-0.130,0.898,-2.016,-16.511,0.654
0.630,-0.130,0.895,-1.855,-16.034,0.813
0.630,-0.130,0.891,-1.696,-15.529,0.956
0.630,-0.130,0.888,-1.551,-15.034,1.098
0.629,-0.130,0.885,-1.420,-14.554,1.217
0.629,-0.130,0.882,-1.350,-14.098,1.323
0.628,-0.130,0.879,-1.314,-13.675,1.406
0.627,-0.130,0.876,-1.297,-13.290,1.465
0.627,-0.130,0.873,-1.309,-12.964,1.511
0.626,-0.131,0.870,-1.321,-12.691,1.543
0.625,-0.131,0.866,-1.302,-12.456,1.566
0.625,-0.132,0.863,-1.239,-12.231,1.592
0.624,-0.132,0.860,-1.124,-12.022,1.618
0.624,-0.132,0.857,-0.974,-11.814,1.639
0.624,-0.132,0.855,-0.824,-11.600,1.663
0.624,-0.133,0.853,-0.705,-11.381,1.682
0.624,-0.133,0.851,-0.626,-11.168,1.684
0.624,-0.133,0.849,-0.590,-10.961,1.678
0.623,-0.134,0.848,-0.588,-10.765,1.658
0.623,-0.134,0.846,-0.614,-10.589,1.642
0.623,-0.134,0.845,-0.651,-10.430,1.632
0.623,-0.135,0.843,-0.681,-10.291,1.625
0.622,-0.135,0.842,-0.674,-10.165,1.634
0.622,-0.136,0.840,-0.627,-10.062,1.654
0.622,-0.136,0.839,-0.517,-9.948,1.681
0.622,-0.137,0.838,-0.359,-9.813,1.713
0.623,-0.137,0.837,-0.173,-9.655,1.749
0.623,-0.137,0.836,0.004,-9.480,1.783
0.623,-0.137,0.835,0.136,-9.298,1.808
0.623,-0.137,0.834,0.221,-9.110,1.825
0.623,-0.137,0.834,0.244,-8.918,1.829
0.623,-0.137,0.833,0.226,-8.722,1.821
0.623,-0.137,0.832,0.170,-8.537,1.801
0.623,-0.137,0.831,0.080,-8.362,1.779
0.623,-0.137,0.830,-0.038,-8.192,1.771
0.622,-0.137,0.829,-0.133,-8.032,1.759
0.622,-0.138,0.828,-0.181,-7.866,1.746
0.622,-0.138,0.827,-0.194,-7.693,1.746
0.622,-0.138,0.827,-0.171,-7.507,1.754
0.622,-0.138,0.826,-0.108,-7.305,1.759
0.622,-0.138,0.826,-0.040,-7.095,1.755
0.622,-0.138,0.826,0.007,-6.890,1.751
0.622,-0.138,0.825,0.034,-6.697,1.729
0.622,-0.138,0.825,0.028,-6.515,1.700
0.622,-0.139,0.825,0.002,-6.354,1.656
0.622,-0.139,0.825,-0.039,-6.208,1.604
0.622,-0.139,0.824,-0.108,-6.063,1.545
0.622,-0.139,0.824,-0.172,-5.913,1.483
0.622,-0.139,0.823,-0.230,-5.750,1.427
0.622,-0.139,0.823,-0.280,-5.569,1.377
0.622,-0.139,0.823,-0.344,-5.377,1.336
0.622,-0.139,0.823,-0.429,-5.171,1.305
0.622,-0.139,0.822,-0.495,-4.948,1.287
0.622,-0.140,0.822,-0.549,-4.717,1.286
0.622,-0.140,0.822,-0.591,-4.469,1.276
0.622,-0.140,0.822,-0.649,-4.222,1.263
0.622,-0.140,0.822,-0.696,-3.998,1.248
0.622,-0.140,0.822,-0.737,-3.799,1.230
0.621,-0.141,0.822,-0.766,-3.626,1.211
0.621,-0.141,0.821,-0.788,-3.458,1.176
0.621,-0.141,0.820,-0.816,-3.273,1.134
0.621,-0.141,0.820,-0.862,-3.080,1.097
0.621,-0.141,0.820,-0.907,-2.887,1.060
0.621,-0.141,0.820,-0.949,-2.690,1.023
0.621,-0.141,0.820,-0.996,-2.466,1.002
0.621,-0.141,0.820,-1.024,-2.236,0.996
0.621,-0.142,0.820,-1.048,-2.004,0.994
0.620,-0.142,0.821,-1.059,-1.781,1.006
0.620,-0.142,0.821,-1.069,-1.570,1.032
0.620,-0.142,0.821,-1.068,-1.369,1.062
0.620,-0.143,0.822,-1.062,-1.178,1.099
0.619,-0.142,0.822,-1.052,-0.961,1.136
0.619,-0.142,0.822,-1.061,-0.715,1.173
0.619,-0.142,0.822,-1.088,-0.457,1.201
0.619,-0.142,0.822,-1.136,-0.175,1.227
0.618,-0.142,0.822,-1.198,0.124,1.245
0.618,-0.142,0.823,-1.243,0.419,1.260
0.618,-0.142,0.823,-1.282,0.700,1.279
0.617,-0.142,0.823,-1.304,0.966,1.291
0.617,-0.142,0.823,-1.318,1.209,1.296
0.616,-0.142,0.822,-1.314,1.432,1.304
0.615,-0.142,0.822,-1.297,1.628,1.316
0.615,-0.142,0.821,-1.269,1.821,1.330
0.614,-0.142,0.821,-1.224,2.008,1.344
0.613,-0.142,0.820,-1.165,2.195,1.357
0.612,-0.141,0.819,-1.103,2.386,1.366
0.611,-0.141,0.819,-1.042,2.585,1.363
0.610,-0.141,0.818,-0.963,2.790,1.347
0.609,-0.140,0.818,-0.848,2.981,1.323
0.608,-0.140,0.817,-0.741,3.150,1.280
0.607,-0.140,0.817,-0.649,3.284,1.213
0.606,-0.140,0.817,-0.583,3.375,1.128
0.605,-0.141,0.816,-0.535,3.423,1.024
0.604,-0.141,0.816,-0.510,3.424,0.906
0.604,-0.141,0.815,-0.496,3.407,0.774
0.603,-0.142,0.814,-0.468,3.377,0.641
0.602,-0.143,0.813,-0.419,3.352,0.510
0.602,-0.144,0.813,-0.360,3.334,0.386
0.602,-0.145,0.812,-0.296,3.325,0.271
0.601,-0.146,0.812,-0.225,3.330,0.165
0.601,-0.146,0.811,-0.167,3.332,0.073
0.600,-0.147,0.811,-0.127,3.335,-0.018
0.600,-0.148,0.810,-0.087,3.326,-0.098
0.599,-0.149,0.810,-0.043,3.297,-0.175
0.599,-0.150,0.809,-0.024,3.248,-0.241
0.598,-0.151,0.809,-0.008,3.178,-0.292
0.597,-0.152,0.808,0.008,3.086,-0.341
0.597,-0.152,0.807,0.023,2.991,-0.382
0.596,-0.153,0.807,0.044,2.896,-0.408
0.595,-0.154,0.807,0.089,2.820,-0.423
0.594,-0.154,0.806,0.154,2.744,-0.410
0.594,-0.155,0.806,0.234,2.660,-0.386

0.461,-0.093,1.334,1.049,-11.895,-4.160
0.472,-0.092,1.347,1.345,-24.076,-7.979
0.485,-0.092,1.362,1.108,-34.966,-11.885
0.498,-0.091,1.375,0.113,-44.946,-15.692
0.511,-0.090,1.386,-1.985,-53.855,-19.492
0.525,-0.090,1.396,-4.699,-61.314,-23.169
0.542,-0.094,1.406,-7.439,-66.928,-26.409
0.560,-0.099,1.415,-9.668,-70.188,-29.050
0.577,-0.106,1.423,-11.285,-72.008,-31.052
0.592,-0.111,1.429,-12.346,-72.846,-32.562
0.607,-0.115,1.434,-13.265,-72.866,-33.663
0.620,-0.119,1.437,-14.298,-72.362,-34.410
0.632,-0.123,1.437,-15.836,-71.411,-34.878
0.641,-0.127,1.435,-18.163,-70.327,-35.040
0.648,-0.131,1.432,-21.679,-69.231,-34.832
0.652,-0.136,1.430,-25.867,-68.152,-34.435
0.655,-0.140,1.428,-30.200,-67.119,-33.853
0.656,-0.144,1.423,-34.008,-66.108,-33.098
0.656,-0.148,1.417,-36.772,-65.061,-32.033
0.656,-0.149,1.408,-37.969,-63.913,-30.491
0.655,-0.148,1.398,-38.192,-62.655,-28.582
0.655,-0.146,1.386,-37.807,-61.253,-26.354
0.654,-0.144,1.373,-37.046,-59.794,-23.962
0.653,-0.141,1.360,-35.797,-58.074,-21.514
0.651,-0.137,1.347,-34.377,-56.185,-19.255
0.649,-0.133,1.334,-33.170,-54.254,-17.314
0.646,-0.130,1.322,-32.289,-52.480,-15.707
0.642,-0.128,1.309,-31.700,-50.985,-14.404
0.637,-0.127,1.297,-31.243,-49.788,-13.381
0.632,-0.126,1.285,-30.824,-48.704,-12.663
0.628,-0.126,1.273,-30.352,-47.737,-12.116
0.624,-0.125,1.261,-29.836,-46.875,-11.680
0.620,-0.124,1.249,-29.217,-46.077,-11.331
0.618,-0.123,1.236,-28.479,-45.265,-11.044
0.616,-0.121,1.223,-27.658,-44.402,-10.787
0.615,-0.119,1.211,-26.913,-43.491,-10.557
0.615,-0.118,1.201,-26.257,-42.563,-10.356
0.614,-0.118,1.190,-25.684,-41.632,-10.157
0.614,-0.118,1.179,-25.183,-40.704,-9.969
0.614,-0.119,1.169,-24.741,-39.792,-9.805
0.614,-0.121,1.159,-24.345,-38.910,-9.655
0.613,-0.123,1.150,-23.976,-38.079,-9.509
0.613,-0.125,1.142,-23.611,-37.342,-9.362
0.613,-0.127,1.134,-23.244,-36.700,-9.214
0.614,-0.129,1.124,-22.785,-36.105,-9.063
0.615,-0.131,1.113,-22.190,-35.501,-8.904
0.616,-0.132,1.102,-21.444,-34.850,-8.716
0.618,-0.134,1.094,-20.601,-34.151,-8.491
0.619,-0.135,1.086,-19.734,-33.450,-8.240
0.619,-0.136,1.078,-18.910,-32.760,-7.960
0.620,-0.137,1.070,-18.157,-32.069,-7.678
0.621,-0.138,1.061,-17.458,-31.363,-7.388
0.622,-0.139,1.054,-16.856,-30.644,-7.122
0.622,-0.140,1.046,-16.365,-29.942,-6.891
0.622,-0.141,1.039,-15.985,-29.281,-6.680
0.622,-0.142,1.033,-15.656,-28.667,-6.489
0.622,-0.143,1.026,-15.355,-28.123,-6.310
0.622,-0.144,1.020,-15.048,-27.629,-6.135
0.622,-0.145,1.013,-14.714,-27.164,-5.958
0.622,-0.146,1.005,-14.296,-26.701,-5.764
0.623,-0.147,0.998,-13.808,-26.227,-5.558
0.623,-0.147,0.991,-13.268,-25.705,-5.351
0.624,-0.148,0.984,-12.738,-25.120,-5.140
0.624,-0.149,0.978,-12.215,-24.469,-4.929
0.625,-0.150,0.972,-11.701,-23.796,-4.724
0.626,-0.151,0.967,-11.260,-23.141,-4.534
0.626,-0.152,0.963,-10.908,-22.540,-4.366
0.626,-0.153,0.958,-10.633,-21.983,-4.218
0.626,-0.154,0.953,-10.432,-21.470,-4.096
0.626,-0.155,0.949,-10.287,-20.997,-3.996
0.626,-0.156,0.945,-10.165,-20.592,-3.908
0.626,-0.157,0.941,-10.039,-20.244,-3.829
0.626,-0.158,0.935,-9.867,-19.914,-3.746
0.627,-0.159,0.929,-9.631,-19.533,-3.636
0.628,-0.159,0.924,-9.328,-19.068,-3.478
0.629,-0.160,0.919,-8.961,-18.508,-3.308
0.629,-0.160,0.916,-8.577,-17.928,-3.132
0.629,-0.161,0.913,-8.201,-17.362,-2.949
0.629,-0.162,0.909,-7.915,-16.821,-2.773
0.630,-0.163,0.906,-7.720,-16.304,-2.614
0.630,-0.164,0.902,-7.586,-15.829,-2.469
0.630,-0.165,0.898,-7.486,-15.398,-2.332
0.630,-0.165,0.895,-7.419,-15.019,-2.205
0.630,-0.166,0.892,-7.364,-14.660,-2.088
0.630,-0.167,0.888,-7.304,-14.310,-1.971
0.630,-0.167,0.884,-7.214,-13.957,-1.858
0.631,-0.168,0.880,-7.063,-13.581,-1.744
0.631,-0.168,0.877,-6.844,-13.180,-1.615
0.631,-0.168,0.873,-6.565,-12.763,-1.491
0.632,-0.169,0.870,-6.272,-12.349,-1.361
0.632,-0.169,0.867,-5.976,-11.955,-1.229
0.632,-0.170,0.864,-5.710,-11.600,-1.108
0.632,-0.170,0.862,-5.505,-11.298,-1.008
0.632,-0.171,0.859,-5.342,-11.048,-0.926
0.631,-0.172,0.857,-5.213,-10.846,-0.861
0.631,-0.172,0.855,-5.122,-10.685,-0.812
0.630,-0.173,0.852,-5.063,-10.552,-0.778
0.630,-0.173,0.850,-5.029,-10.427,-0.759
0.630,-0.174,0.847,-4.980,-10.274,-0.748
0.630,-0.174,0.844,-4.913,-10.033,-0.729
0.630,-0.173,0.841,-4.846,-9.743,-0.706
0.630,-0.173,0.839,-4.786,-9.425,-0.686
0.630,-0.173,0.837,-4.709,-9.102,-0.670
0.630,-0.174,0.836,-4.618,-8.812,-0.658
0.630,-0.175,0.835,-4.537,-8.583,-0.648
0.630,-0.175,0.833,-4.490,-8.402,-0.647
0.630,-0.176,0.832,-4.465,-8.266,-0.652
0.630,-0.176,0.831,-4.453,-8.160,-0.661
0.629,-0.177,0.830,-4.468,-8.083,-0.673
0.629,-0.177,0.829,-4.503,-8.024,-0.675
0.630,-0.178,0.827,-4.554,-7.942,-0.676
0.630,-0.178,0.825,-4.604,-7.811,-0.669
0.630,-0.178,0.823,-4.652,-7.624,-0.655
0.631,-0.178,0.822,-4.693,-7.403,-0.631
0.631,-0.179,0.821,-4.717,-7.164,-0.607
0.631,-0.179,0.820,-4.746,-6.931,-0.583
0.631,-0.179,0.819,-4.788,-6.721,-0.555
0.631,-0.180,0.819,-4.847,-6.547,-0.520
0.630,-0.181,0.818,-4.940,-6.416,-0.494
0.630,-0.181,0.818,-5.065,-6.324,-0.468
0.630,-0.182,0.817,-5.190,-6.259,-0.446
0.630,-0.183,0.817,-5.256,-6.215,-0.420
0.630,-0.184,0.816,-5.283,-6.153,-0.379
0.630,-0.184,0.815,-5.275,-6.059,-0.314
0.630,-0.184,0.814,-5.231,-5.905,-0.232
0.630,-0.184,0.814,-5.149,-5.710,-0.150
0.630,-0.185,0.813,-5.046,-5.500,-0.076
0.630,-0.186,0.813,-4.954,-5.286,-0.022
0.629,-0.186,0.813,-4.891,-5.075,0.014
0.629,-0.186,0.813,-4.860,-4.887,0.023
0.628,-0.187,0.812,-4.851,-4.716,0.004
0.628,-0.187,0.812,-4.858,-4.564,-0.019
0.627,-0.187,0.811,-4.872,-4.420,-0.058
0.627,-0.188,0.811,-4.899,-4.292,-0.096
0.626,-0.188,0.810,-4.913,-4.155,-0.135
0.626,-0.189,0.809,-4.919,-4.003,-0.171
0.626,-0.189,0.808,-4.914,-3.833,-0.199
0.626,-0.190,0.807,-4.918,-3.640,-0.212
0.626,-0.191,0.807,-4.910,-3.431,-0.214
0.626,-0.192,0.806,-4.880,-3.230,-0.218
0.626,-0.192,0.806,-4.846,-3.049,-0.223
0.626,-0.193,0.805,-4.820,-2.887,-0.224
0.625,-0.194,0.804,-4.807,-2.735,-0.237
0.625,-0.194,0.804,-4.811,-2.590,-0.254
0.625,-0.195,0.803,-4.844,-2.478,-0.271
0.625,-0.196,0.802,-4.886,-2.380,-0.297
0.624,-0.196,0.801,-4.917,-2.286,-0.321
0.624,-0.196,0.799,-4.919,-2.172,-0.338
0.624,-0.197,0.798,-4.899,-2.049,-0.351
0.624,-0.198,0.798,-4.854,-1.917,-0.353
0.624,-0.199,0.797,-4.777,-1.775,-0.355
0.624,-0.200,0.795,-4.654,-1.630,-0.357
0.624,-0.200,0.794,-4.507,-1.488,-0.347
0.624,-0.201,0.794,-4.371,-1.372,-0.336
0.623,-0.201,0.794,-4.251,-1.283,-0.324
0.623,-0.202,0.793,-4.164,-1.220,-0.860
0.623,-0.203,0.793,-4.100,-1.179,-0.841
0.623,-0.203,0.792,-4.050,-1.156,-0.832
0.623,-0.203,0.792,-4.031,-1.140,-0.823
0.623,-0.203,0.791,-4.015,-1.121,-0.825
0.623,-0.204,0.790,-3.993,-1.085,-0.829
0.623,-0.204,0.789,-3.934,-1.031,-0.840
0.623,-0.205,0.788,-3.878,-0.963,-0.855
0.623,-0.205,0.788,-3.828,-0.890,-0.869
0.622,-0.206,0.787,-3.781,-0.831,-0.886
0.622,-0.206,0.787,-3.729,-0.794,-0.901
0.621,-0.207,0.787,-3.690,-0.786,-0.908
0.621,-0.207,0.787,-3.657,-0.798,-0.905
0.620,-0.208,0.787,-3.618,-0.830,-0.892
0.620,-0.208,0.787,-3.582,-0.879,-0.878
0.619,-0.209,0.787,-3.550,-0.950,-0.849
0.619,-0.209,0.787,-3.514,-1.054,-0.805
0.619,-0.210,0.787,-3.474,-1.171,-0.763
0.619,-0.210,0.786,-3.397,-1.247,-0.712
0.620,-0.211,0.785,-3.269,-1.273,-0.648
0.620,-0.211,0.784,-3.116,-1.237,-0.582
0.621,-0.211,0.784,-2.998,-1.165,-0.523
0.621,-0.212,0.785,-2.900,-1.068,-0.470
0.621,-0.212,0.785,-2.826,-0.968,-0.426
0.621,-0.213,0.785,-2.790,-0.878,-0.393
0.621,-0.213,0.786,-2.806,-0.796,-0.364
0.620,-0.213,0.786,-2.841,-0.729,-0.331
0.620,-0.214,0.786,-2.879,-0.679,-0.285
0.620,-0.214,0.787,-2.918,-0.657,-0.224
0.620,-0.214,0.787,-2.950,-0.671,-0.151
0.620,-0.215,0.788,-2.957,-0.701,-0.063
0.620,-0.215,0.788,-2.938,-0.736,0.032
0.620,-0.215,0.787,-2.864,-0.737,0.148
0.620,-0.215,0.787,-2.745,-0.690,0.280
0.620,-0.215,0.787,-2.560,-0.614,0.414
0.620,-0.215,0.788,-2.329,-0.506,0.554
0.620,-0.216,0.788,-2.072,-0.381,0.690
0.620,-0.216,0.789,-1.856,-0.257,0.817
0.619,-0.216,0.790,-1.727,-0.145,0.936
0.619,-0.216,0.791,-1.702,-0.056,1.047
0.619,-0.216,0.792,-1.756,0.007,1.162
0.619,-0.217,0.794,-1.853,0.035,1.273
0.619,-0.218,0.796,-1.986,0.027,1.398
0.619,-0.219,0.796,-2.100,0.019,1.533

0.564,-0.272,1.017,-1.545,2.059,2.752
0.563,-0.273,1.020,-0.893,4.140,3.944
0.561,-0.273,1.024,-0.215,6.204,5.099
0.559,-0.273,1.027,0.445,8.223,6.204
0.557,-0.273,1.030,1.061,10.154,7.230
0.554,-0.273,1.033,1.599,12.049,8.177
0.552,-0.273,1.036,2.066,13.900,9.029
0.549,-0.273,1.039,2.440,14.730,9.791
0.545,-0.272,1.042,2.697,16.387,10.485
0.542,-0.272,1.044,2.888,18.026,11.122
0.539,-0.272,1.046,3.053,19.697,11.704
0.536,-0.273,1.046,3.268,21.414,12.302
0.532,-0.274,1.047,3.608,23.160,12.935
0.529,-0.274,1.047,4.042,24.894,13.598
0.525,-0.274,1.047,4.579,26.640,14.268
0.520,-0.274,1.048,5.225,28.378,14.946
0.516,-0.276,1.054,6.008,30.086,15.635
0.511,-0.277,1.058,6.896,31.719,16.334
0.507,-0.279,1.061,7.806,33.280,17.022
0.503,-0.281,1.064,8.702,34.799,17.655
0.498,-0.282,1.068,9.480,36.297,18.247
0.494,-0.283,1.071,10.009,37.792,18.850
0.490,-0.285,1.072,10.432,39.291,19.445
0.486,-0.286,1.073,10.822,40.834,20.050
0.481,-0.288,1.074,11.097,42.428,20.697
0.477,-0.289,1.073,11.154,44.162,21.401
0.472,-0.290,1.072,11.036,45.931,22.106
0.468,-0.292,1.071,10.835,47.855,22.756
0.464,-0.295,1.071,10.606,49.953,23.394
0.459,-0.298,1.071,10.413,52.102,24.126
0.454,-0.300,1.072,10.352,54.276,24.927
0.448,-0.303,1.072,10.416,56.411,25.790
0.442,-0.305,1.072,10.589,58.520,26.696
0.436,-0.307,1.072,10.880,60.535,27.608
0.429,-0.309,1.071,11.253,62.367,28.506
0.421,-0.311,1.069,11.702,63.944,29.367
0.413,-0.312,1.066,12.199,65.414,30.209
0.405,-0.312,1.060,12.736,66.784,31.056
0.396,-0.311,1.052,13.240,68.041,31.822
0.387,-0.309,1.042,13.646,69.261,32.456
0.378,-0.307,1.031,13.904,70.456,32.991
0.369,-0.305,1.021,14.113,71.617,33.462
0.359,-0.304,1.011,14.445,72.698,33.899
0.348,-0.303,1.003,14.992,73.622,34.295
0.337,-0.302,0.995,15.800,74.306,34.652
0.326,-0.301,0.988,16.804,74.752,34.946
0.315,-0.299,0.980,17.964,74.975,35.150
0.303,-0.296,0.973,19.199,74.968,35.214
0.291,-0.293,0.966,20.293,74.701,35.179
0.279,-0.290,0.960,21.221,74.233,35.095
0.268,-0.287,0.954,21.886,73.598,34.942
0.256,-0.283,0.946,22.201,72.737,34.753
0.244,-0.278,0.938,22.177,71.808,34.532
0.233,-0.272,0.930,21.864,70.874,34.211
0.223,-0.266,0.923,21.304,69.988,33.833
0.212,-0.261,0.916,20.518,69.115,33.443
0.202,-0.256,0.910,19.654,68.243,33.046
0.192,-0.252,0.904,18.813,67.366,32.636
0.181,-0.250,0.900,17.941,66.486,32.197
0.171,-0.247,0.896,17.048,65.592,31.730
0.162,-0.245,0.892,16.194,64.678,31.225
0.152,-0.244,0.888,15.455,63.765,30.708
0.143,-0.244,0.884,14.863,62.832,30.191
0.133,-0.243,0.879,14.398,61.856,29.672
0.124,-0.243,0.876,14.040,60.828,29.156
0.115,-0.242,0.874,13.848,59.756,28.633
0.106,-0.240,0.873,13.699,58.618,28.128
0.097,-0.237,0.873,13.509,57.428,27.645
0.088,-0.234,0.874,13.236,56.223,27.173
0.081,-0.230,0.875,12.706,55.139,26.731
0.074,-0.224,0.877,11.802,54.244,26.347
0.067,-0.219,0.880,10.526,53.626,26.048
0.060,-0.216,0.883,9.029,53.285,25.823
0.053,-0.214,0.888,7.346,53.244,25.555
0.045,-0.215,0.893,5.743,53.427,25.176
0.037,-0.216,0.899,4.312,53.829,24.755
0.029,-0.218,0.904,3.091,54.360,24.318
0.020,-0.221,0.909,2.176,54.890,23.876
0.011,-0.223,0.914,1.529,55.266,23.451
0.001,-0.224,0.920,1.126,55.493,23.074
-0.008,-0.225,0.926,0.935,55.364,22.764
-0.019,-0.225,0.933,0.944,54.867,22.550
-0.031,-0.226,0.941,1.289,54.045,22.420
-0.042,-0.229,0.950,1.932,52.989,22.291
-0.053,-0.232,0.960,2.777,51.820,22.192
-0.064,-0.235,0.968,3.652,50.500,22.143
-0.075,-0.236,0.976,4.409,49.148,22.218
-0.084,-0.236,0.982,5.057,47.860,22.365
-0.092,-0.237,0.986,5.710,46.723,22.556
-0.099,-0.238,0.991,6.557,45.727,22.830
-0.106,-0.238,0.997,7.628,44.853,23.178
-0.113,-0.238,1.004,8.796,44.068,23.574
-0.121,-0.238,1.012,9.965,43.319,23.928
-0.127,-0.239,1.020,11.132,42.706,24.248
-0.133,-0.239,1.029,12.358,42.182,24.509
-0.140,-0.239,1.036,13.631,41.814,24.766
-0.146,-0.239,1.043,15.060,41.554,25.002
-0.153,-0.239,1.049,16.638,41.349,25.140
-0.160,-0.239,1.053,18.236,41.355,25.198
-0.165,-0.238,1.056,19.669,41.573,25.194
-0.171,-0.236,1.059,20.735,41.686,25.226
-0.179,-0.233,1.058,21.317,41.714,25.198
-0.181,-0.229,1.055,21.321,42.150,25.191
-0.183,-0.225,1.050,21.007,43.115,25.169
-0.184,-0.221,1.043,20.533,44.637,25.149
-0.185,-0.219,1.036,20.022,46.631,25.209
-0.188,-0.219,1.027,19.597,48.923,25.325
-0.192,-0.220,1.017,19.306,51.631,25.462
-0.194,-0.221,1.006,19.207,54.648,25.557
-0.197,-0.220,0.995,19.270,57.537,25.595
-0.200,-0.220,0.984,19.438,60.252,25.640
-0.203,-0.219,0.972,19.691,62.661,25.736
-0.206,-0.219,0.959,20.072,64.738,25.822
-0.209,-0.218,0.946,20.611,66.609,25.922
-0.211,-0.217,0.934,21.313,68.253,26.066
-0.214,-0.216,0.922,22.386,69.546,26.247
-0.218,-0.216,0.912,23.821,70.353,26.397
-0.222,-0.214,0.901,25.468,70.713,26.455
-0.225,-0.210,0.891,26.993,70.729,26.374
-0.229,-0.204,0.880,28.140,70.632,26.176
-0.232,-0.196,0.869,28.854,70.469,25.898
-0.234,-0.190,0.856,29.251,70.184,25.519
-0.237,-0.184,0.845,29.523,69.743,25.058
-0.240,-0.179,0.833,29.845,69.163,24.494
-0.242,-0.176,0.821,30.120,68.477,23.714
-0.244,-0.171,0.808,30.215,67.517,22.733
-0.247,-0.165,0.795,30.112,66.434,21.581
-0.249,-0.159,0.780,29.931,65.324,20.276
-0.251,-0.153,0.762,29.819,64.151,18.850
-0.254,-0.146,0.743,29.764,62.911,17.349
-0.256,-0.137,0.723,29.576,61.660,15.780
-0.259,-0.126,0.701,29.213,60.380,14.170
-0.261,-0.113,0.678,28.524,59.104,12.517
-0.263,-0.097,0.655,27.421,57.803,10.780
-0.265,-0.081,0.632,25.477,56.494,8.948
-0.266,-0.064,0.608,22.325,55.174,7.053
-0.266,-0.050,0.583,18.703,53.834,5.078
-0.266,-0.036,0.558,14.428,51.793,3.124
-0.267,-0.025,0.531,9.858,49.493,1.121
-0.267,-0.016,0.502,5.331,47.433,-1.039
-0.268,-0.014,0.473,2.776,45.331,-3.372
-0.269,-0.015,0.442,0.086,43.079,-5.715
-0.270,-0.019,0.412,-1.798,40.375,-8.153
-0.271,-0.025,0.383,-2.870,36.166,-10.727
-0.272,-0.032,0.357,-3.259,30.404,-13.651
-0.272,-0.037,0.333,-3.340,22.796,-16.685
-0.271,-0.036,0.311,-3.449,12.927,-19.349
-0.269,-0.031,0.290,-3.856,0.785,-21.770
-0.264,-0.024,0.266,-4.983,-13.454,-24.096
-0.255,-0.015,0.240,-7.163,-28.296,-26.593
-0.245,-0.008,0.211,-10.809,-43.123,-29.427
-0.234,-0.005,0.181,-15.230,-57.173,-32.410
-0.221,-0.004,0.150,-19.834,-69.672,-35.667
-0.205,-0.007,0.123,-24.170,-80.581,-39.049
-0.188,-0.010,0.101,-26.415,-90.148,-42.488
-0.170,-0.019,0.087,-28.619,-99.636,-45.763
-0.154,-0.035,0.087,-29.736,-113.908,-48.818
-0.140,-0.053,0.094,-29.916,-131.728,-51.647
-0.126,-0.073,0.109,-28.765,-153.200,-54.916
-0.108,-0.087,0.133,-27.133,-175.325,-58.330
-0.090,-0.097,0.166,-24.638,-197.584,-61.875
-0.072,-0.105,0.205,-21.181,-220.284,-65.231
-0.055,-0.108,0.248,-17.569,-243.265,-67.526
-0.038,-0.107,0.293,-14.337,-264.917,-69.459
-0.019,-0.106,0.343,-12.055,-284.402,-71.497
0.007,-0.108,0.400,-11.030,-299.100,-73.506
0.038,-0.112,0.457,-10.836,-308.324,-75.513
0.072,-0.117,0.513,-10.921,-313.328,-78.271
0.105,-0.125,0.566,-11.071,-315.139,-81.408
0.140,-0.135,0.617,-11.170,-313.406,-84.644
0.179,-0.146,0.668,-11.175,-307.955,-87.818
0.217,-0.156,0.718,-10.989,-301.117,-90.594
0.254,-0.164,0.766,-10.595,-293.765,-92.619
0.289,-0.172,0.812,-10.220,-286.246,-94.191
0.323,-0.179,0.856,-9.958,-278.320,-95.429
0.358,-0.188,0.896,-9.858,-270.408,-96.071
0.391,-0.198,0.934,-9.924,-262.517,-95.689
0.422,-0.207,0.968,-10.351,-255.023,-94.904
0.452,-0.213,1.001,-11.265,-247.733,-93.926
0.479,-0.221,1.031,-12.567,-240.549,-92.789
0.505,-0.230,1.059,-13.874,-233.390,-91.400
0.529,-0.240,1.083,-14.820,-226.252,-89.636
0.549,-0.246,1.103,-15.475,-219.233,-87.716
0.568,-0.249,1.116,-16.011,-212.522,-85.690
0.583,-0.250,1.129,-16.638,-206.303,-83.619
0.596,-0.249,1.138,-17.435,-200.641,-81.420
0.606,-0.247,1.144,-18.308,-195.505,-78.753
0.614,-0.245,1.148,-19.101,-190.277,-75.743
0.619,-0.244,1.150,-19.696,-184.536,-72.444
0.622,-0.242,1.151,-19.971,-178.847,-68.914
0.622,-0.239,1.152,-19.865,-173.363,-65.080
0.621,-0.235,1.153,-19.377,-168.172,-61.115
0.619,-0.229,1.153,-18.557,-163.333,-57.172
0.617,-0.223,1.151,-17.428,-158.654,-53.317
0.614,-0.217,1.146,-16.000,-153.863,-49.661
0.612,-0.211,1.140,-14.286,-148.955,-46.381
0.611,-0.205,1.135,-12.785,-144.007,-43.528
0.609,-0.199,1.130,-11.690,-139.089,-41.170
0.607,-0.194,1.123,-11.061,-134.183,-39.203

0.603,-0.185,1.109,-10.960,-129.396,-37.728
0.602,-0.181,1.102,-11.354,-124.687,-36.683
0.602,-0.178,1.096,-12.174,-120.158,-35.850
0.601,-0.176,1.086,-13.409,-116.031,-35.148
0.600,-0.175,1.077,-14.933,-112.136,-34.560
0.600,-0.174,1.066,-16.573,-108.400,-34.058
0.600,-0.175,1.055,-18.120,-104.797,-33.599
0.599,-0.176,1.045,-19.382,-101.322,-33.150
0.599,-0.178,1.036,-20.228,-98.079,-32.665
0.598,-0.181,1.027,-20.669,-95.121,-32.126
0.598,-0.183,1.019,-20.748,-92.499,-31.530
0.597,-0.186,1.009,-20.466,-90.221,-30.836
0.597,-0.189,0.998,-19.920,-88.049,-30.077
0.598,-0.191,0.987,-19.089,-85.933,-29.253
0.600,-0.192,0.976,-18.078,-83.814,-28.381
0.601,-0.193,0.967,-17.052,-81.688,-27.479
0.603,-0.193,0.959,-16.227,-79.618,-26.617
0.605,-0.195,0.952,-15.634,-77.652,-25.799
0.606,-0.196,0.945,-15.241,-75.802,-25.015
0.607,-0.196,0.938,-14.964,-73.968,-24.264
0.608,-0.198,0.931,-14.741,-72.115,-23.533
0.610,-0.199,0.925,-14.521,-70.246,-22.827
0.611,-0.200,0.920,-14.282,-68.403,-22.148
0.612,-0.200,0.915,-14.010,-66.633,-21.480
0.613,-0.201,0.911,-13.703,-64.981,-20.813
0.613,-0.202,0.906,-13.373,-63.454,-20.142
0.613,-0.203,0.902,-13.009,-61.980,-19.475
0.614,-0.203,0.897,-12.614,-60.545,-18.802
0.615,-0.204,0.892,-12.164,-59.136,-18.121
0.615,-0.205,0.888,-11.642,-57.755,-17.453
0.615,-0.205,0.886,-11.096,-56.391,-16.810
0.615,-0.204,0.883,-10.602,-55.071,-16.196
0.614,-0.204,0.881,-10.175,-53.797,-15.619
0.614,-0.204,0.879,-9.815,-52.561,-15.087
0.614,-0.204,0.876,-9.507,-51.357,-14.599
0.614,-0.204,0.873,-9.275,-50.177,-14.149
0.614,-0.203,0.871,-9.092,-48.980,-13.727
0.614,-0.203,0.868,-8.930,-47.766,-13.337
0.614,-0.204,0.867,-8.781,-46.567,-12.973
0.614,-0.204,0.865,-8.627,-45.408,-12.633
0.614,-0.205,0.863,-8.471,-44.315,-12.309
0.614,-0.205,0.861,-8.308,-43.291,-11.990
0.613,-0.205,0.859,-8.157,-42.301,-11.669
0.613,-0.206,0.857,-8.004,-41.339,-11.346
0.613,-0.206,0.855,-7.813,-40.397,-11.005
0.613,-0.207,0.854,-7.554,-39.482,-10.663
0.613,-0.207,0.852,-7.289,-38.595,-10.324
0.613,-0.207,0.850,-7.053,-37.726,-9.985
0.613,-0.207,0.847,-6.832,-36.876,-9.643
0.613,-0.207,0.845,-6.574,-35.967,-9.301
0.613,-0.208,0.843,-6.304,-35.011,-8.979
0.613,-0.208,0.842,-6.064,-34.049,-8.692
0.614,-0.207,0.842,-5.897,-33.095,-8.451
0.613,-0.207,0.841,-5.810,-32.193,-8.259
0.613,-0.208,0.840,-5.775,-31.351,-8.114
0.613,-0.209,0.838,-5.731,-30.568,-7.995
0.613,-0.209,0.837,-5.678,-29.781,-7.882
0.613,-0.209,0.835,-5.619,-28.992,-7.779
0.613,-0.210,0.834,-5.555,-28.227,-7.665
0.613,-0.210,0.833,-5.507,-27.470,-7.544
0.614,-0.210,0.832,-5.504,-26.733,-7.420
0.614,-0.211,0.830,-5.542,-26.063,-7.273
0.614,-0.211,0.828,-5.567,-25.413,-7.105
0.614,-0.212,0.826,-5.538,-24.720,-6.318
0.614,-0.212,0.824,-5.403,-24.009,-6.116
0.615,-0.213,0.823,-5.198,-23.300,-5.891
0.615,-0.213,0.822,-4.972,-22.625,-5.655
0.615,-0.213,0.821,-4.787,-21.998,-5.428
0.616,-0.213,0.819,-4.681,-21.434,-5.230
0.616,-0.214,0.818,-4.672,-20.932,-5.061
0.616,-0.215,0.815,-4.680,-20.430,-4.906
0.617,-0.216,0.813,-4.666,-19.896,-4.758
0.617,-0.216,0.811,-4.597,-19.366,-4.612
0.616,-0.216,0.810,-4.512,-18.856,-4.483
0.616,-0.216,0.809,-4.415,-18.373,-4.371
0.616,-0.216,0.808,-4.293,-17.937,-4.262
0.615,-0.216,0.806,-4.144,-17.547,-4.162
0.615,-0.217,0.805,-3.995,-17.150,-4.093
0.614,-0.217,0.804,-3.817,-16.744,-4.040
0.614,-0.218,0.803,-3.627,-16.342,-3.988
0.614,-0.218,0.803,-3.453,-15.957,-3.953
0.613,-0.218,0.803,-3.331,-15.594,-3.932
0.613,-0.219,0.802,-3.276,-15.265,-3.921
0.613,-0.219,0.801,-3.287,-14.951,-3.917
0.613,-0.220,0.801,-3.323,-14.635,-3.912
0.613,-0.221,0.800,-3.358,-14.313,-3.894
0.613,-0.222,0.799,-3.349,-13.978,-3.862
0.613,-0.223,0.799,-3.289,-13.632,-3.808
0.613,-0.223,0.798,-3.196,-13.279,-3.725
0.613,-0.224,0.797,-3.107,-12.924,-3.637
0.613,-0.224,0.797,-3.027,-12.566,-3.540
0.613,-0.225,0.796,-2.951,-12.219,-3.439
0.613,-0.226,0.796,-2.892,-11.904,-3.339
0.613,-0.226,0.796,-2.863,-11.624,-3.229
0.613,-0.226,0.795,-2.826,-11.367,-3.119
0.613,-0.227,0.795,-2.780,-11.112,-3.006
0.613,-0.227,0.794,-2.713,-10.850,-2.906
0.613,-0.228,0.794,-2.637,-10.580,-2.821
0.613,-0.228,0.794,-2.569,-10.313,-2.735
0.613,-0.228,0.794,-2.523,-10.071,-2.667
0.613,-0.229,0.794,-2.485,-9.847,-2.599
0.612,-0.229,0.794,-2.464,-9.630,-2.544
0.612,-0.229,0.793,-2.452,-9.414,-2.487
0.612,-0.229,0.793,-2.441,-9.209,-2.422
0.612,-0.230,0.792,-2.443,-9.005,-2.337
0.612,-0.230,0.791,-2.445,-8.755,-2.251
0.612,-0.230,0.791,-2.444,-8.489,-2.154
0.612,-0.230,0.791,-2.423,-8.222,-2.063
0.612,-0.230,0.791,-2.402,-7.953,-1.977
0.612,-0.230,0.790,-2.397,-7.701,-1.892
0.612,-0.230,0.790,-2.386,-7.476,-1.820
0.612,-0.231,0.790,-2.354,-7.270,-1.753
0.612,-0.231,0.789,-2.313,-7.068,-1.685
0.613,-0.231,0.789,-2.262,-6.901,-1.610
0.612,-0.231,0.788,-2.210,-6.745,-1.536
0.613,-0.231,0.788,-2.168,-6.585,-1.477
0.613,-0.231,0.788,-2.138,-6.447,-1.421
0.613,-0.231,0.787,-2.148,-6.350,-1.357
0.613,-0.231,0.787,-2.156,-6.278,-1.292
0.614,-0.231,0.785,-2.113,-6.181,-1.226
0.614,-0.231,0.785,-2.040,-6.060,-1.160
0.614,-0.230,0.785,-1.933,-5.928,-1.093
0.614,-0.230,0.785,-1.819,-5.808,-1.029
0.614,-0.230,0.785,-1.730,-5.705,-0.974
0.614,-0.230,0.785,-1.689,-5.633,-0.931
0.614,-0.230,0.784,-1.700,-5.570,-0.898
0.614,-0.230,0.783,-1.699,-5.503,-0.867
0.614,-0.230,0.782,-1.644,-5.410,-0.844
0.614,-0.229,0.782,-1.562,-5.289,-0.816
0.614,-0.229,0.782,-1.464,-5.161,-0.784
0.614,-0.229,0.782,-1.351,-5.053,-0.754
0.614,-0.229,0.782,-1.261,-4.960,-0.731
0.614,-0.229,0.782,-1.215,-4.888,-0.722
0.614,-0.228,0.782,-1.222,-4.858,-0.724
0.614,-0.228,0.781,-1.253,-4.844,-0.729
0.614,-0.229,0.780,-1.264,-4.817,-0.735
0.614,-0.228,0.779,-1.218,-4.779,-0.740
0.614,-0.228,0.779,-1.140,-4.726,-0.740
0.614,-0.228,0.779,-1.060,-4.651,-0.743
0.614,-0.228,0.779,-0.971,-4.591,-0.747
0.614,-0.228,0.779,-0.901,-4.554,-0.766
0.614,-0.228,0.779,-0.881,-4.548,-0.796
0.614,-0.228,0.779,-0.895,-4.555,-0.828
0.614,-0.228,0.778,-0.925,-4.535,-0.855
0.614,-0.228,0.778,-0.937,-4.496,-0.874
0.614,-0.228,0.778,-0.921,-4.453,-0.890
0.614,-0.228,0.779,-0.879,-4.423,-0.899
0.614,-0.228,0.779,-0.828,-4.403,-0.900
0.614,-0.229,0.779,-0.763,-4.392,-0.891
0.614,-0.229,0.780,-0.696,-4.385,-0.880
0.614,-0.229,0.780,-0.634,-4.384,-0.878
0.614,-0.229,0.781,-0.588,-4.410,-0.867
0.614,-0.229,0.780,-0.549,-4.419,-0.852
0.614,-0.229,0.780,-0.503,-4.348,-0.835
0.615,-0.229,0.780,-0.457,-4.239,-0.817
0.615,-0.229,0.781,-0.433,-4.115,-0.803
0.614,-0.229,0.782,-0.432,-3.990,-0.799
0.614,-0.229,0.782,-0.471,-4.402,-0.811
0.614,-0.229,0.782,-0.543,-4.307,-0.833
0.614,-0.229,0.782,-0.618,-4.213,-0.856
0.614,-0.229,0.782,-0.671,-4.107,-0.876
0.614,-0.230,0.782,-0.691,-4.016,-0.891
0.614,-0.230,0.783,-0.691,-3.948,-0.904
0.614,-0.230,0.782,-0.674,-3.905,-0.902
0.614,-0.230,0.782,-0.644,-3.852,-0.890
0.614,-0.230,0.781,-0.606,-3.775,-0.879
0.614,-0.230,0.781,-0.586,-3.693,-0.864
0.614,-0.231,0.782,-0.574,-3.619,-0.854
0.614,-0.231,0.782,-0.588,-3.581,-0.845
0.614,-0.231,0.781,-0.635,-3.553,-0.828
0.615,-0.231,0.780,-0.687,-3.476,-0.803
0.615,-0.231,0.779,-0.733,-3.357,-0.763
0.615,-0.231,0.780,-0.776,-3.227,-0.728
0.615,-0.231,0.780,-0.818,-3.112,-0.696
0.615,-0.231,0.781,-0.854,-3.026,-0.661
0.615,-0.231,0.781,-0.887,-2.981,-0.623
0.614,-0.232,0.780,-0.917,-2.945,-0.592
0.615,-0.232,0.780,-0.930,-2.887,-0.562
0.615,-0.232,0.779,-0.916,-2.820,-0.527
0.615,-0.232,0.779,-0.905,-2.758,-0.496
0.615,-0.231,0.780,-0.914,-2.697,-0.472
0.614,-0.231,0.780,-0.940,-2.651,-0.450
0.614,-0.231,0.780,-0.971,-2.622,-0.431
0.614,-0.231,0.779,-1.006,-2.584,-0.416
0.615,-0.231,0.779,-1.037,-2.524,-0.407
0.615,-0.231,0.779,-1.044,-2.446,-0.385
0.615,-0.231,0.779,-1.028,-2.374,-0.364
0.615,-0.231,0.779,-1.006,-2.308,-0.349
0.615,-0.231,0.779,-0.967,-2.246,-0.340
0.615,-0.231,0.779,-0.935,-2.184,-0.333
0.615,-0.231,0.779,-0.913,-2.123,-0.332
0.615,-0.231,0.779,-0.913,-2.066,-0.338
0.615,-0.231,0.779,-0.930,-2.026,-0.347
0.615,-0.231,0.779,-0.955,-1.992,-0.358
0.615,-0.231,0.779,-1.000,-1.963,-0.367
0.615,-0.231,0.779,-1.051,-1.937,-0.377
0.615,-0.231,0.779,-1.102,-1.921,-0.391
0.614,-0.232,0.778,-1.162,-1.918,-0.394
0.614,-0.232,0.778,-1.200,-1.899,-0.389

0.469,-0.280,1.154,4.228,-21.630,-9.580
0.486,-0.280,1.173,10.839,-37.689,-17.452
0.504,-0.277,1.196,16.949,-50.788,-24.159
0.523,-0.273,1.220,21.488,-62.193,-30.033
0.543,-0.269,1.244,23.926,-72.541,-35.174
0.564,-0.267,1.267,24.160,-82.005,-39.854
0.586,-0.269,1.289,23.523,-90.659,-43.964
0.608,-0.272,1.309,21.989,-98.557,-47.630
0.632,-0.276,1.325,19.422,-105.219,-51.115
0.656,-0.280,1.337,15.933,-110.644,-54.683
0.679,-0.284,1.346,12.096,-114.218,-57.858
0.702,-0.290,1.352,8.707,-116.110,-60.391
0.721,-0.295,1.357,5.847,-116.890,-62.230
0.737,-0.298,1.362,3.233,-116.187,-63.357
0.752,-0.299,1.367,0.593,-114.687,-63.843
0.764,-0.300,1.370,-2.183,-112.710,-63.707
0.773,-0.300,1.372,-5.230,-110.465,-62.919
0.779,-0.300,1.373,-8.423,-108.102,-61.807
0.784,-0.300,1.372,-11.700,-105.695,-60.477
0.786,-0.299,1.369,-14.939,-103.299,-59.049
0.788,-0.298,1.365,-17.834,-100.934,-57.276
0.787,-0.298,1.359,-19.836,-98.614,-54.976
0.786,-0.297,1.352,-20.871,-96.324,-52.353
0.784,-0.297,1.343,-20.981,-94.064,-49.394
0.781,-0.295,1.332,-20.521,-91.856,-46.021
0.777,-0.292,1.321,-18.575,-89.703,-42.311
0.772,-0.287,1.309,-16.691,-87.482,-38.610
0.766,-0.281,1.298,-14.367,-85.244,-34.988
0.761,-0.275,1.286,-11.839,-82.958,-31.531
0.756,-0.269,1.275,-9.312,-80.708,-28.397
0.750,-0.263,1.265,-6.934,-78.583,-25.750
0.744,-0.257,1.254,-4.975,-76.635,-23.523
0.738,-0.251,1.244,-3.523,-74.849,-21.687
0.732,-0.246,1.234,-2.584,-73.147,-20.234
0.727,-0.242,1.223,-2.065,-71.505,-19.088
0.722,-0.239,1.213,-1.846,-69.915,-18.263
0.718,-0.235,1.203,-1.939,-68.373,-17.617
0.714,-0.231,1.193,-2.264,-66.863,-17.102
0.711,-0.227,1.182,-2.801,-65.363,-16.650
0.708,-0.223,1.170,-3.471,-63.878,-16.215
0.706,-0.220,1.159,-4.141,-62.304,-15.796
0.705,-0.218,1.148,-4.766,-60.609,-15.379
0.704,-0.216,1.137,-5.292,-58.843,-14.951
0.703,-0.215,1.127,-5.686,-57.054,-14.510
0.702,-0.214,1.117,-5.962,-55.326,-14.056
0.702,-0.214,1.106,-6.079,-53.688,-13.578
0.701,-0.214,1.096,-6.094,-52.201,-13.095
0.700,-0.214,1.087,-6.019,-50.837,-12.620
0.700,-0.214,1.077,-5.871,-49.574,-12.145
0.700,-0.213,1.068,-5.687,-48.391,-11.672
0.700,-0.212,1.059,-5.562,-47.267,-11.203
0.699,-0.211,1.049,-5.487,-46.118,-10.718
0.699,-0.210,1.040,-5.478,-44.890,-10.248
0.699,-0.209,1.031,-5.510,-43.586,-9.793
0.699,-0.208,1.023,-5.597,-42.286,-9.356
0.699,-0.207,1.015,-5.778,-41.035,-8.950
0.698,-0.206,1.006,-5.972,-39.810,-8.571
0.698,-0.205,0.998,-6.130,-38.592,-8.206
0.697,-0.205,0.990,-6.225,-37.408,-7.846
0.697,-0.204,0.982,-6.227,-36.287,-7.482
0.696,-0.204,0.975,-6.087,-35.238,-7.135
0.695,-0.203,0.968,-5.852,-34.299,-6.780
0.694,-0.203,0.962,-5.524,-33.449,-6.397
0.692,-0.202,0.954,-5.133,-32.684,-6.020
0.691,-0.202,0.947,-4.713,-31.915,-5.651
0.691,-0.201,0.940,-4.279,-31.132,-5.295
0.690,-0.200,0.935,-3.894,-30.357,-4.964
0.689,-0.199,0.929,-3.616,-29.610,-4.652
0.688,-0.198,0.924,-3.464,-28.874,-4.361
0.687,-0.196,0.918,-3.415,-28.126,-4.108
0.687,-0.195,0.913,-3.440,-27.357,-3.892
0.686,-0.195,0.908,-3.449,-26.587,-3.695
0.686,-0.194,0.904,-3.400,-25.824,-3.532
0.685,-0.194,0.901,-3.287,-25.079,-3.383
0.685,-0.194,0.897,-3.111,-24.373,-3.234
0.684,-0.194,0.894,-2.876,-23.718,-3.076
0.683,-0.194,0.890,-2.599,-23.120,-2.919
0.683,-0.194,0.886,-2.321,-22.579,-2.761
0.682,-0.194,0.882,-2.062,-22.042,-2.613
0.682,-0.194,0.878,-1.840,-21.507,-2.475
0.681,-0.194,0.875,-1.711,-20.976,-2.333
0.680,-0.193,0.872,-1.663,-20.448,-2.207
0.679,-0.193,0.869,-1.676,-19.893,-2.104
0.679,-0.192,0.866,-1.741,-19.315,-2.018
0.678,-0.192,0.863,-1.844,-18.712,-1.961
0.677,-0.192,0.860,-1.954,-18.096,-1.918
0.677,-0.192,0.857,-2.039,-17.486,-1.897
0.676,-0.192,0.854,-2.100,-16.903,-1.890
0.675,-0.193,0.852,-2.123,-16.376,-1.901
0.674,-0.193,0.849,-2.128,-15.899,-1.920
0.673,-0.194,0.847,-2.126,-15.460,-1.946
0.672,-0.194,0.844,-2.136,-15.057,-1.973
0.671,-0.194,0.841,-2.157,-14.691,-1.995
0.670,-0.194,0.839,-2.186,-14.324,-2.012
0.670,-0.195,0.837,-2.215,-13.964,-2.023
0.669,-0.195,0.834,-2.218,-13.602,-2.023
0.669,-0.196,0.832,-2.200,-13.216,-2.012
0.668,-0.196,0.830,-2.169,-12.793,-1.993
0.668,-0.196,0.828,-2.108,-12.371,-1.968
0.667,-0.197,0.827,-2.044,-11.967,-1.944
0.667,-0.197,0.825,-1.975,-11.578,-1.924
0.666,-0.198,0.823,-1.900,-11.208,-1.909
0.665,-0.198,0.822,-1.849,-10.862,-1.898
0.664,-0.199,0.821,-1.832,-10.555,-1.894
0.664,-0.199,0.819,-1.859,-10.284,-1.896
0.663,-0.199,0.817,-1.913,-10.027,-1.895
0.662,-0.199,0.815,-1.963,-9.756,-1.893
0.662,-0.199,0.813,-2.003,-9.490,-1.873
0.661,-0.199,0.811,-2.017,-9.215,-1.837
0.661,-0.200,0.809,-1.951,-8.901,-1.786
0.661,-0.201,0.807,-1.818,-8.567,-1.716
0.660,-0.201,0.806,-1.652,-8.236,-1.640
0.660,-0.201,0.805,-1.489,-7.927,-1.567
0.659,-0.202,0.804,-1.335,-7.652,-1.504
0.658,-0.202,0.803,-1.189,-7.404,-1.457
0.658,-0.203,0.802,-1.072,-7.163,-1.430
0.658,-0.203,0.801,-1.014,-6.955,-1.412
0.657,-0.203,0.799,-1.020,-6.769,-1.405
0.656,-0.203,0.798,-1.072,-6.596,-1.414
0.656,-0.203,0.796,-1.159,-6.418,-1.431
0.655,-0.203,0.794,-1.255,-6.215,-1.447
0.655,-0.204,0.792,-1.343,-5.988,-1.462
0.654,-0.204,0.791,-1.395,-5.777,-1.460
0.654,-0.205,0.790,-1.408,-5.577,-1.451
0.653,-0.206,0.789,-1.383,-5.384,-1.443
0.653,-0.206,0.787,-1.323,-5.202,-1.427
0.653,-0.207,0.786,-1.250,-5.050,-1.404
0.652,-0.207,0.785,-1.178,-4.938,-1.378
0.652,-0.208,0.785,-1.113,-4.858,-1.349
0.652,-0.208,0.783,-1.079,-4.783,-1.325
0.652,-0.208,0.782,-1.082,-4.709,-1.298
0.651,-0.208,0.781,-1.105,-4.627,-1.259
0.651,-0.208,0.780,-1.126,-4.525,-1.217
0.651,-0.208,0.779,-1.141,-4.396,-1.160
0.651,-0.208,0.778,-1.140,-4.250,-1.099
0.651,-0.209,0.778,-1.128,-4.106,-1.032
0.651,-0.209,0.777,-1.096,-3.973,-0.969
0.651,-0.209,0.777,-1.055,-3.847,-0.907
0.650,-0.209,0.776,-0.998,-3.746,-0.845
0.650,-0.210,0.776,-0.948,-3.673,-0.781
0.650,-0.209,0.775,-0.905,-3.615,-0.726
0.650,-0.209,0.774,-0.879,-3.567,-0.667
0.649,-0.209,0.774,-0.857,-3.527,-0.606
0.649,-0.209,0.773,-0.845,-3.483,-0.550
0.649,-0.209,0.772,-0.838,-3.432,-0.490
0.649,-0.209,0.772,-0.804,-3.381,-0.432
0.648,-0.209,0.772,-0.749,-3.325,-0.379
0.648,-0.209,0.772,-0.681,-3.269,-0.329
0.648,-0.209,0.771,-0.600,-3.210,-0.273
0.648,-0.209,0.771,-0.509,-3.149,-0.221
0.647,-0.209,0.771,-0.405,-3.086,-0.168
0.647,-0.210,0.771,-0.290,-3.033,-0.114
0.647,-0.210,0.771,-0.178,-2.986,-0.060
0.647,-0.210,0.771,-0.095,-2.953,-0.005
0.647,-0.209,0.770,-0.046,-2.926,0.044
0.646,-0.209,0.770,-0.024,-2.894,0.094
0.646,-0.209,0.770,-0.014,-2.844,0.146
0.646,-0.209,0.770,-0.014,-2.784,0.199
0.646,-0.209,0.770,-0.006,-2.723,0.254
0.646,-0.209,0.770,0.011,-2.655,0.308
0.646,-0.209,0.770,0.032,-2.570,0.354
0.646,-0.209,0.770,0.069,-2.485,0.403
0.646,-0.209,0.770,0.121,-2.403,0.447
0.646,-0.209,0.770,0.178,-2.321,0.494
0.646,-0.209,0.770,0.219,-2.247,0.537
0.646,-0.209,0.771,0.251,-2.191,0.593
0.646,-0.209,0.771,0.277,-2.162,0.657
0.646,-0.209,0.771,0.288,-2.139,0.723
0.646,-0.209,0.772,0.299,-2.100,0.795
0.647,-0.209,0.772,0.316,-2.054,0.874
0.647,-0.209,0.772,0.348,-1.985,0.952
0.647,-0.209,0.773,0.382,-1.876,1.041
0.647,-0.209,0.774,0.421,-1.741,1.137
0.647,-0.209,0.774,0.474,-1.587,1.240
0.647,-0.208,0.775,0.507,-1.420,1.354
0.647,-0.208,0.776,0.512,-1.249,1.490
0.648,-0.209,0.777,0.487,-1.075,1.626
0.648,-0.208,0.777,0.437,-0.895,1.775
0.648,-0.208,0.778,0.369,-0.687,1.930
0.649,-0.209,0.779,0.274,-0.448,2.107
0.649,-0.209,0.780,0.181,-0.195,2.286
0.649,-0.209,0.780,0.098,0.064,2.483
0.649,-0.210,0.781,0.042,0.333,2.687
0.649,-0.211,0.782,0.011,0.594,2.911
0.649,-0.211,0.783,0.011,0.855,3.153
0.649,-0.212,0.784,0.030,1.132,3.409
0.648,-0.212,0.785,0.057,1.430,3.687
0.648,-0.213,0.785,0.082,1.746,3.970
0.648,-0.213,0.787,0.075,2.082,4.256
0.647,-0.213,0.788,0.025,2.414,4.538
0.646,-0.213,0.789,-0.057,2.766,4.821
0.646,-0.213,0.790,-0.165,3.140,5.088
0.645,-0.213,0.791,-0.277,3.530,5.347
0.645,-0.214,0.793,-0.400,3.897,5.614
0.644,-0.214,0.794,-0.531,4.260,5.873
0.643,-0.215,0.796,-0.654,4.626,6.114
0.642,-0.216,0.797,-0.773,5.008,6.358
0.642,-0.216,0.799,-0.881,5.403,6.617
0.641,-0.217,0.801,-0.992,5.805,6.901

0.509,-0.135,1.266,-1.550,-12.392,0.085
0.531,-0.134,1.284,-1.807,-27.279,-6.150
0.553,-0.134,1.304,-1.945,-39.565,-11.744
0.575,-0.134,1.325,-2.025,-49.285,-16.633
0.597,-0.135,1.345,-2.099,-57.258,-20.722
0.618,-0.137,1.364,-2.242,-63.944,-23.898
0.639,-0.138,1.380,-2.614,-69.438,-26.611
0.659,-0.139,1.395,-3.248,-73.881,-28.872
0.678,-0.138,1.408,-4.221,-77.274,-30.673
0.696,-0.137,1.420,-5.678,-79.690,-32.147
0.714,-0.136,1.431,-7.634,-81.064,-33.306
0.729,-0.137,1.438,-10.232,-81.490,-34.205
0.743,-0.138,1.442,-13.336,-81.099,-34.853
0.753,-0.140,1.444,-16.971,-79.985,-35.156
0.761,-0.142,1.444,-21.126,-78.642,-35.107
0.766,-0.142,1.442,-25.629,-77.148,-34.678
0.769,-0.144,1.439,-29.714,-75.571,-34.013
0.770,-0.146,1.433,-32.893,-73.977,-33.080
0.768,-0.148,1.426,-34.894,-72.396,-31.674
0.765,-0.148,1.418,-35.772,-70.852,-29.748
0.761,-0.148,1.407,-35.496,-69.323,-27.155
0.757,-0.147,1.395,-34.707,-67.795,-24.175
0.753,-0.145,1.381,-33.082,-66.251,-20.998
0.748,-0.143,1.367,-30.632,-64.468,-17.794
0.743,-0.140,1.354,-27.660,-62.552,-14.786
0.737,-0.136,1.341,-24.586,-60.573,-12.244
0.730,-0.131,1.329,-21.945,-58.593,-10.115
0.724,-0.127,1.316,-19.905,-56.690,-8.435
0.718,-0.124,1.304,-18.494,-54.978,-7.208
0.712,-0.121,1.292,-17.656,-53.457,-6.379
0.706,-0.119,1.280,-17.418,-52.156,-5.942
0.701,-0.117,1.267,-17.467,-50.970,-5.739
0.696,-0.116,1.253,-17.717,-49.840,-5.685
0.691,-0.116,1.238,-18.058,-48.717,-5.718
0.686,-0.116,1.225,-18.400,-47.617,-5.799
0.682,-0.117,1.212,-18.679,-46.555,-5.892
0.678,-0.118,1.200,-18.774,-45.549,-5.964
0.674,-0.119,1.188,-18.714,-44.551,-6.007
0.671,-0.120,1.176,-18.501,-43.549,-6.016
0.669,-0.121,1.164,-18.164,-42.547,-5.993
0.667,-0.123,1.153,-17.737,-41.550,-5.945
0.665,-0.124,1.144,-17.277,-40.598,-5.883
0.663,-0.126,1.134,-16.865,-39.713,-5.824
0.662,-0.128,1.126,-16.517,-38.903,-5.780
0.661,-0.129,1.117,-16.256,-38.149,-5.748
0.661,-0.131,1.108,-16.073,-37.423,-5.717
0.661,-0.133,1.098,-15.947,-36.709,-5.681
0.661,-0.135,1.089,-15.795,-35.992,-5.638
0.661,-0.137,1.080,-15.590,-35.224,-5.583
0.661,-0.140,1.072,-15.334,-34.410,-5.515
0.662,-0.142,1.064,-15.038,-33.545,-5.431
0.662,-0.143,1.055,-14.666,-32.611,-5.313
0.662,-0.145,1.048,-14.273,-31.641,-5.174
0.662,-0.146,1.040,-13.919,-30.699,-5.002
0.661,-0.148,1.033,-13.603,-29.821,-4.807
0.660,-0.150,1.027,-13.319,-29.015,-4.587
0.659,-0.151,1.021,-13.074,-28.284,-4.339
0.658,-0.153,1.014,-12.848,-27.613,-4.074
0.657,-0.154,1.008,-12.637,-27.000,-3.795
0.657,-0.155,1.002,-12.441,-26.385,-3.506
0.656,-0.156,0.996,-12.222,-25.726,-3.210
0.655,-0.157,0.990,-11.942,-25.026,-2.918
0.654,-0.158,0.984,-11.599,-24.255,-2.644
0.653,-0.159,0.978,-11.199,-23.416,-2.385
0.652,-0.159,0.973,-10.769,-22.571,-2.143
0.651,-0.159,0.968,-10.342,-21.750,-1.921
0.650,-0.160,0.963,-9.936,-20.980,-1.714
0.649,-0.160,0.959,-9.528,-20.282,-1.537
0.647,-0.160,0.955,-9.141,-19.669,-1.376
0.646,-0.161,0.950,-8.785,-19.131,-1.240
0.645,-0.161,0.945,-8.479,-18.620,-1.132
0.644,-0.161,0.940,-8.229,-18.109,-1.051
0.644,-0.161,0.936,-8.008,-17.565,-0.987
0.643,-0.162,0.932,-7.828,-16.993,-0.927
0.642,-0.161,0.927,-7.675,-16.388,-0.876
0.641,-0.161,0.924,-7.541,-15.751,-0.839
0.640,-0.161,0.920,-7.455,-15.113,-0.800
0.639,-0.161,0.917,-7.399,-14.501,-0.760
0.638,-0.162,0.913,-7.354,-13.915,-0.737
0.637,-0.162,0.910,-7.311,-13.388,-0.723
0.636,-0.163,0.906,-7.242,-12.922,-0.731
0.635,-0.164,0.903,-7.162,-12.502,-0.750
0.634,-0.164,0.900,-7.061,-12.131,-0.785
0.633,-0.164,0.897,-6.963,-11.795,-0.808
0.632,-0.164,0.893,-6.866,-11.485,-0.831
0.631,-0.165,0.890,-6.772,-11.195,-0.846
0.630,-0.165,0.888,-6.667,-10.913,-0.849
0.629,-0.166,0.884,-6.512,-10.613,-0.842
0.629,-0.167,0.881,-6.328,-10.275,-0.834
0.628,-0.167,0.877,-6.126,-9.890,-0.825
0.628,-0.167,0.875,-5.942,-9.465,-0.813
0.627,-0.167,0.873,-5.798,-9.045,-0.804
0.626,-0.167,0.871,-5.706,-8.656,-0.814
0.626,-0.168,0.869,-5.637,-8.315,-0.833
0.625,-0.169,0.868,-5.574,-8.060,-0.867
0.624,-0.170,0.866,-5.502,-7.861,-0.915
0.623,-0.171,0.864,-5.431,-7.718,-0.967
0.622,-0.172,0.863,-5.349,-7.617,-1.023
0.621,-0.172,0.861,-5.252,-7.543,-1.077
0.620,-0.173,0.859,-5.137,-7.470,-1.134
0.620,-0.174,0.856,-5.006,-7.362,-1.180
0.620,-0.174,0.854,-4.861,-7.200,-1.214
0.620,-0.174,0.852,-4.738,-6.985,-1.234
0.620,-0.174,0.851,-4.651,-6.728,-1.251
0.620,-0.174,0.850,-4.601,-6.459,-1.265
0.619,-0.174,0.848,-4.577,-6.168,-1.296
0.619,-0.174,0.847,-4.579,-5.857,-1.332
0.619,-0.175,0.846,-4.601,-5.562,-1.372
0.618,-0.175,0.845,-4.631,-5.293,-1.417
0.617,-0.176,0.844,-4.654,-5.067,-1.456
0.617,-0.177,0.843,-4.658,-4.930,-1.480
0.616,-0.178,0.842,-4.632,-4.842,-1.497
0.615,-0.178,0.840,-4.561,-4.747,-1.517
0.615,-0.178,0.839,-4.448,-4.629,-1.514
0.614,-0.179,0.837,-4.312,-4.501,-1.500
0.614,-0.179,0.837,-4.181,-4.369,-1.497
0.614,-0.179,0.836,-4.086,-4.258,-1.496
0.614,-0.180,0.835,-4.034,-4.144,-1.499
0.613,-0.180,0.833,-4.011,-4.008,-1.518
0.613,-0.180,0.832,-4.012,-3.836,-1.560
0.613,-0.180,0.830,-4.036,-3.646,-1.612
0.613,-0.181,0.829,-4.088,-3.474,-1.662
0.612,-0.181,0.829,-4.162,-3.338,-1.721
0.612,-0.182,0.828,-4.216,-3.247,-1.774
0.611,-0.182,0.827,-4.221,-3.203,-1.820
0.611,-0.183,0.826,-4.182,-3.199,-1.847
0.610,-0.184,0.824,-4.102,-3.230,-1.861
0.610,-0.185,0.823,-3.975,-3.254,-1.870
0.610,-0.185,0.821,-3.799,-3.249,-1.860
0.609,-0.185,0.820,-3.611,-3.227,-1.843
0.609,-0.185,0.819,-3.419,-3.187,-1.833
0.609,-0.186,0.818,-3.271,-3.118,-1.831
0.609,-0.186,0.818,-3.166,-3.034,-1.836
0.608,-0.186,0.817,-3.120,-2.946,-1.852
0.608,-0.186,0.817,-3.140,-2.866,-1.869
0.608,-0.186,0.816,-3.180,-2.784,-1.894
0.608,-0.186,0.816,-3.229,-2.729,-1.919
0.607,-0.187,0.816,-3.270,-2.710,-1.931
0.607,-0.187,0.815,-3.298,-2.714,-1.944
0.607,-0.188,0.814,-3.286,-2.744,-1.948
0.607,-0.189,0.813,-3.231,-2.781,-1.943
0.607,-0.189,0.812,-3.129,-2.798,-1.920
0.607,-0.189,0.811,-3.007,-2.775,-1.884
0.607,-0.189,0.811,-2.892,-2.732,-1.831
0.607,-0.189,0.810,-2.777,-2.656,-1.771
0.607,-0.189,0.810,-2.676,-2.548,-1.709
0.606,-0.190,0.809,-2.604,-2.416,-1.659
0.606,-0.190,0.809,-2.574,-2.288,-1.611
0.606,-0.190,0.809,-2.585,-2.184,-1.569
0.606,-0.190,0.809,-2.623,-2.113,-1.533
0.605,-0.191,0.809,-2.676,-2.070,-1.513
0.605,-0.191,0.809,-2.720,-2.056,-1.503
0.605,-0.192,0.809,-2.742,-2.074,-1.491
0.605,-0.192,0.808,-2.720,-2.101,-1.470
0.604,-0.192,0.807,-2.654,-2.107,-1.446
0.604,-0.192,0.806,-2.559,-2.080,-1.403
0.604,-0.192,0.806,-2.470,-2.030,-1.351
0.604,-0.192,0.806,-2.404,-1.966,-1.294
0.604,-0.192,0.806,-2.360,-1.899,-1.237
0.604,-0.192,0.806,-2.329,-1.834,-1.180
0.604,-0.192,0.806,-2.308,-1.776,-1.125
0.604,-0.192,0.806,-2.302,-1.726,-1.072
0.604,-0.192,0.806,-2.303,-1.690,-1.023
0.604,-0.192,0.806,-2.308,-1.675,-0.991
0.604,-0.193,0.806,-2.319,-1.686,-0.966
0.604,-0.193,0.806,-2.328,-1.701,-0.948
0.604,-0.193,0.806,-2.344,-1.708,-0.931
0.604,-0.193,0.805,-2.340,-1.702,-0.912
0.604,-0.193,0.805,-2.315,-1.668,-0.895
0.604,-0.193,0.804,-2.268,-1.590,-0.868
0.604,-0.192,0.804,-2.220,-1.494,-0.828
0.604,-0.192,0.804,-2.174,-1.392,-0.778
0.604,-0.192,0.805,-2.160,-1.297,-0.714
0.604,-0.192,0.805,-2.164,-1.213,-0.652
0.604,-0.192,0.805,-2.177,-1.144,-0.585
0.604,-0.192,0.806,-2.188,-1.076,-0.528
0.604,-0.193,0.806,-2.184,-1.020,-0.469
0.604,-0.193,0.806,-2.152,-0.980,-0.413
0.604,-0.193,0.806,-2.105,-0.943,-0.365
0.604,-0.193,0.807,-2.070,-0.919,-0.321
0.604,-0.193,0.807,-2.044,-0.904,-0.281
0.604,-0.194,0.807,-2.020,-0.881,-0.234
0.605,-0.194,0.807,-2.005,-0.828,-0.190
0.605,-0.193,0.807,-2.015,-0.729,-0.134
0.605,-0.193,0.807,-2.027,-0.622,-0.056
0.606,-0.194,0.807,-2.012,-0.495,0.029
0.606,-0.194,0.808,-2.003,-0.348,0.126
0.606,-0.194,0.809,-2.036,-0.191,0.219
0.607,-0.195,0.810,-2.104,-0.014,0.339
0.607,-0.195,0.811,-2.191,0.170,0.478
0.607,-0.195,0.812,-2.253,0.359,0.637
0.608,-0.196,0.813,-2.287,0.561,0.809
0.608,-0.197,0.813,-2.272,0.748,1.014
0.608,-0.198,0.814,-2.238,0.962,1.214
0.608,-0.198,0.815,-2.225,1.191,1.409
0.608,-0.199,0.816,-2.205,1.427,1.600
0.608,-0.199,0.816,-2.171,1.679,1.779
0.607,-0.200,0.817,-2.159,1.937,1.954
0.606,-0.200,0.818,-2.174,2.174,2.120

0.384,-0.222,1.278,-2.499,-23.375,-0.882
0.402,-0.223,1.294,-3.076,-44.782,-4.084
0.423,-0.223,1.310,-3.932,-61.392,-7.467
0.444,-0.222,1.324,-4.783,-74.754,-10.927
0.466,-0.222,1.338,-5.278,-84.940,-14.557
0.489,-0.225,1.350,-5.201,-92.558,-17.988
0.511,-0.229,1.359,-4.743,-98.039,-20.905
0.532,-0.232,1.366,-3.910,-101.472,-23.196
0.551,-0.234,1.373,-2.911,-103.670,-24.800
0.567,-0.234,1.381,-2.054,-105.390,-25.875
0.582,-0.233,1.388,-1.490,-106.486,-26.530
0.595,-0.232,1.395,-1.170,-107.002,-26.800
0.607,-0.230,1.400,-1.037,-106.992,-26.789
0.618,-0.229,1.404,-1.028,-106.537,-26.546
0.627,-0.228,1.405,-1.108,-105.640,-26.136
0.636,-0.227,1.405,-1.233,-104.350,-25.609
0.644,-0.225,1.402,-1.508,-102.583,-24.989
0.651,-0.224,1.397,-2.064,-100.564,-24.252
0.657,-0.224,1.390,-2.869,-98.382,-23.407
0.662,-0.223,1.382,-3.985,-96.141,-22.447
0.667,-0.221,1.373,-5.359,-93.926,-21.432
0.666,-0.219,1.364,-6.863,-91.591,-20.358
0.667,-0.217,1.353,-8.324,-89.233,-19.173
0.666,-0.214,1.341,-9.514,-86.927,-17.869
0.664,-0.212,1.330,-10.037,-84.879,-16.307
0.662,-0.210,1.318,-10.071,-82.963,-14.547
0.659,-0.207,1.306,-9.721,-81.127,-12.608
0.656,-0.203,1.293,-8.920,-79.338,-10.573
0.654,-0.199,1.278,-7.620,-77.594,-8.484
0.652,-0.194,1.265,-5.714,-75.882,-6.462
0.650,-0.189,1.252,-3.754,-74.211,-4.597
0.648,-0.184,1.239,-2.001,-72.588,-2.987
0.646,-0.179,1.227,-0.592,-70.993,-1.718
0.645,-0.175,1.216,0.407,-69.430,-0.759
0.643,-0.171,1.206,0.920,-67.909,-0.128
0.641,-0.168,1.198,1.157,-66.427,0.255
0.640,-0.165,1.189,1.169,-64.984,0.441
0.639,-0.162,1.181,1.035,-63.586,0.515
0.638,-0.160,1.172,0.791,-62.221,0.511
0.638,-0.157,1.161,0.454,-60.878,0.474
0.638,-0.155,1.151,0.074,-59.496,0.404
0.638,-0.153,1.140,-0.326,-58.052,0.286
0.639,-0.152,1.130,-0.739,-56.578,0.168
0.639,-0.151,1.121,-1.098,-55.093,0.041
0.639,-0.151,1.112,-1.359,-53.614,-0.088
0.640,-0.150,1.103,-1.529,-52.187,-0.203
0.640,-0.150,1.095,-1.640,-50.823,-0.297
0.640,-0.150,1.086,-1.706,-49.532,-0.381
0.641,-0.150,1.078,-1.750,-48.288,-0.465
0.641,-0.150,1.070,-1.808,-47.110,-0.558
0.642,-0.150,1.062,-1.889,-45.921,-0.661
0.644,-0.150,1.054,-1.994,-44.730,-0.775
0.645,-0.150,1.046,-2.132,-43.520,-0.903
0.646,-0.149,1.038,-2.303,-42.296,-1.040
0.647,-0.149,1.030,-2.486,-41.038,-1.177
0.648,-0.149,1.022,-2.660,-39.797,-1.301
0.649,-0.149,1.014,-2.842,-38.612,-1.405
0.649,-0.150,1.007,-2.996,-37.487,-1.476
0.650,-0.150,0.999,-3.111,-36.422,-1.526
0.650,-0.150,0.992,-3.174,-35.435,-1.548
0.650,-0.151,0.985,-3.173,-34.537,-1.546
0.650,-0.152,0.978,-3.109,-33.705,-1.529
0.651,-0.152,0.971,-2.965,-32.898,-1.500
0.651,-0.153,0.963,-2.784,-32.073,-1.475
0.652,-0.153,0.956,-2.591,-31.218,-1.459
0.653,-0.153,0.949,-2.427,-30.308,-1.461
0.653,-0.153,0.942,-2.322,-29.378,-1.476
0.654,-0.153,0.937,-2.320,-28.481,-1.513
0.654,-0.153,0.932,-2.368,-27.639,-1.575
0.654,-0.154,0.926,-2.457,-26.844,-1.653
0.654,-0.154,0.921,-2.580,-26.101,-1.745
0.654,-0.155,0.915,-2.712,-25.411,-1.841
0.654,-0.155,0.910,-2.827,-24.777,-1.935
0.654,-0.156,0.905,-2.906,-24.199,-2.024
0.654,-0.157,0.901,-2.928,-23.707,-2.101
0.654,-0.158,0.896,-2.886,-23.245,-2.155
0.654,-0.159,0.892,-2.796,-22.784,-2.203
0.654,-0.159,0.887,-2.709,-22.320,-2.238
0.655,-0.158,0.882,-2.631,-21.817,-2.251
0.655,-0.158,0.878,-2.570,-21.289,-2.252
0.655,-0.158,0.874,-2.537,-20.760,-2.261
0.655,-0.159,0.871,-2.551,-20.253,-2.284
0.655,-0.159,0.868,-2.609,-19.794,-2.317
0.655,-0.160,0.865,-2.652,-19.361,-2.353
0.655,-0.161,0.862,-2.672,-18.922,-2.403
0.655,-0.162,0.859,-2.664,-18.479,-2.458
0.655,-0.162,0.857,-2.646,-18.065,-2.507
0.655,-0.163,0.855,-2.594,-17.690,-2.553
0.655,-0.164,0.852,-2.488,-17.349,-2.589
0.655,-0.165,0.850,-2.354,-17.015,-2.612
0.655,-0.165,0.847,-2.190,-16.669,-2.619
0.655,-0.166,0.844,-2.022,-16.324,-2.605
0.655,-0.166,0.842,-1.890,-15.981,-2.572
0.655,-0.167,0.839,-1.792,-15.637,-2.534
0.656,-0.167,0.837,-1.729,-15.273,-2.497
0.656,-0.167,0.836,-1.703,-14.859,-2.469
0.656,-0.168,0.834,-1.717,-14.454,-2.438
0.656,-0.168,0.833,-1.770,-14.072,-2.413
0.656,-0.169,0.831,-1.838,-13.688,-2.395
0.656,-0.169,0.830,-1.912,-13.312,-2.375
0.656,-0.170,0.828,-1.969,-12.953,-2.353
0.656,-0.171,0.827,-2.009,-12.640,-2.332
0.656,-0.171,0.825,-2.029,-12.348,-2.293
0.655,-0.172,0.823,-2.013,-12.037,-2.250
0.656,-0.172,0.821,-1.978,-11.716,-2.179
0.656,-0.172,0.819,-1.921,-11.371,-2.097
0.655,-0.172,0.818,-1.869,-11.029,-2.018
0.655,-0.172,0.817,-1.842,-10.695,-1.942
0.655,-0.172,0.816,-1.861,-10.397,-1.864
0.654,-0.172,0.814,-1.912,-10.120,-1.788
0.654,-0.173,0.813,-1.985,-9.814,-1.734
0.655,-0.173,0.811,-2.064,-9.458,-1.688
0.655,-0.173,0.810,-2.148,-9.106,-1.636
0.655,-0.173,0.809,-2.211,-8.756,-1.598
0.655,-0.174,0.809,-2.253,-8.420,-1.558
0.655,-0.174,0.808,-2.271,-8.127,-1.511
0.654,-0.174,0.807,-2.261,-7.895,-1.455
0.654,-0.175,0.806,-2.231,-7.695,-1.388
0.654,-0.175,0.805,-2.180,-7.518,-1.319
0.654,-0.175,0.804,-2.137,-7.346,-1.248
0.654,-0.175,0.803,-2.112,-7.156,-1.169
0.654,-0.175,0.802,-2.102,-6.890,-1.089
0.654,-0.174,0.801,-2.115,-6.583,-1.014
0.654,-0.175,0.801,-2.161,-6.249,-0.965
0.654,-0.175,0.800,-2.256,-5.901,-0.926
0.654,-0.174,0.800,-2.387,-5.561,-0.896
0.654,-0.175,0.799,-2.534,-5.243,-0.873
0.654,-0.175,0.798,-2.677,-4.946,-0.852
0.654,-0.175,0.798,-2.800,-4.680,-0.833
0.654,-0.175,0.797,-2.899,-4.450,-0.807
0.654,-0.176,0.796,-2.962,-4.245,-0.780
0.654,-0.176,0.796,-2.993,-4.054,-0.754
0.654,-0.176,0.795,-3.010,-3.880,-0.708
0.653,-0.176,0.794,-3.014,-3.738,-0.624
0.653,-0.177,0.792,-2.999,-3.599,-0.529
0.653,-0.177,0.791,-2.955,-3.432,-0.425
0.653,-0.177,0.790,-2.885,-3.227,-0.315
0.653,-0.177,0.788,-2.802,-3.002,-0.202
0.653,-0.177,0.788,-2.699,-2.772,-0.097
0.653,-0.177,0.787,-2.632,-2.564,-0.014
0.652,-0.177,0.787,-2.601,-2.378,0.039
0.652,-0.177,0.787,-2.605,-2.217,0.076
0.652,-0.178,0.786,-2.640,-2.111,0.096
0.651,-0.178,0.785,-2.671,-2.042,0.114
0.650,-0.178,0.784,-2.685,-1.964,0.116
0.650,-0.178,0.783,-2.683,-1.874,0.130
0.650,-0.178,0.782,-2.645,-1.795,0.168
0.649,-0.179,0.780,-2.564,-1.701,0.226
0.649,-0.178,0.779,-2.462,-1.586,0.294
0.649,-0.178,0.778,-2.363,-1.441,0.362
0.649,-0.178,0.778,-2.250,-1.282,0.432
0.649,-0.179,0.777,-2.124,-1.136,0.502
0.649,-0.179,0.778,-2.014,-1.011,0.547
0.649,-0.179,0.778,-1.946,-0.881,0.561
0.648,-0.179,0.778,-1.954,-0.747,0.548
0.648,-0.180,0.778,-2.008,-0.610,0.526
0.648,-0.180,0.779,-2.159,-0.464,0.522
0.649,-0.180,0.780,-2.365,-0.294,0.539
0.649,-0.180,0.781,-2.571,-0.105,0.591
0.649,-0.181,0.782,-2.725,0.124,0.671
0.649,-0.181,0.783,-2.813,0.404,0.784
0.650,-0.182,0.784,-2.836,0.761,0.936
0.650,-0.183,0.785,-2.809,1.183,1.124
0.650,-0.183,0.786,-2.763,1.673,1.363
0.650,-0.183,0.788,-2.708,2.222,1.651
0.650,-0.183,0.790,-2.645,2.839,1.986
0.650,-0.184,0.792,-2.602,3.452,2.362
0.650,-0.185,0.795,-2.600,4.008,2.749
0.650,-0.186,0.798,-2.643,4.564,3.128
0.649,-0.188,0.801,-2.738,5.117,3.489
0.649,-0.189,0.803,-2.872,5.654,3.844
0.649,-0.191,0.806,-3.026,6.186,4.203
0.649,-0.191,0.809,-3.174,6.757,4.553
0.649,-0.192,0.811,-3.310,7.391,4.899
0.649,-0.193,0.814,-3.427,8.027,5.263
0.648,-0.193,0.815,-3.528,8.690,5.648
0.648,-0.194,0.817,-3.612,9.396,6.028
0.647,-0.194,0.818,-3.697,10.121,6.411
0.645,-0.195,0.820,-3.802,10.848,6.789
0.644,-0.195,0.821,-3.925,11.591,7.160
0.642,-0.195,0.822,-4.057,12.349,7.519
0.640,-0.196,0.823,-4.185,13.099,7.876
0.638,-0.197,0.824,-4.315,13.793,8.222
0.636,-0.198,0.825,-4.434,14.425,8.566
0.634,-0.198,0.827,-4.558,14.952,8.897
0.633,-0.200,0.828,-4.665,15.399,9.220
0.631,-0.201,0.828,-4.744,15.822,9.540
0.629,-0.202,0.828,-4.820,16.280,9.847
0.628,-0.203,0.829,-4.910,16.752,10.163
0.626,-0.204,0.829,-5.025,17.215,10.495
0.625,-0.204,0.829,-5.177,17.701,10.827
0.623,-0.205,0.830,-5.373,18.195,11.144
0.622,-0.205,0.831,-5.621,18.673,11.458
0.620,-0.206,0.832,-5.895,19.127,11.760
0.618,-0.206,0.833,-6.264,19.578,12.056
0.616,-0.206,0.834,-6.688,19.996,12.355
0.614,-0.207,0.834,-7.137,20.305,12.699
0.611,-0.208,0.835,-7.556,20.502,13.104
0.609,-0.210,0.835,-7.963,20.719,13.535

0.243,-0.214,1.503,-9.940,14.650,9.919
0.253,-0.230,1.531,-10.915,10.504,7.346
0.260,-0.244,1.559,-11.343,7.610,5.566
0.264,-0.255,1.585,-11.524,5.800,4.329
0.266,-0.265,1.608,-11.677,4.524,3.500
0.267,-0.273,1.628,-11.950,3.628,2.961
0.266,-0.279,1.643,-12.542,3.009,2.545
0.265,-0.284,1.655,-13.405,2.602,2.236
0.263,-0.289,1.661,-14.460,2.330,2.011
0.259,-0.293,1.663,-15.514,2.159,1.877
0.255,-0.296,1.662,-16.336,2.036,1.853
0.250,-0.299,1.659,-16.806,1.955,1.948
0.245,-0.301,1.653,-16.925,1.880,2.199
0.240,-0.301,1.646,-16.680,1.813,2.610
0.235,-0.299,1.639,-16.164,1.736,3.191
0.230,-0.296,1.631,-15.402,1.630,3.889
0.225,-0.292,1.623,-14.485,1.504,4.634
0.220,-0.287,1.612,-13.532,1.371,5.363
0.215,-0.282,1.601,-12.644,1.271,6.007
0.210,-0.276,1.589,-11.925,1.202,6.527
0.206,-0.270,1.575,-11.358,1.196,6.910
0.202,-0.263,1.560,-10.940,1.262,7.096
0.197,-0.257,1.545,-10.595,1.399,7.168
0.193,-0.251,1.531,-10.298,1.562,7.130
0.188,-0.246,1.517,-10.045,1.733,6.989
0.184,-0.241,1.502,-9.807,1.884,6.776
0.180,-0.237,1.487,-9.562,1.998,6.516
0.176,-0.234,1.472,-9.289,2.091,6.220
0.173,-0.231,1.457,-8.998,2.161,5.898
0.170,-0.229,1.442,-8.691,2.181,5.558
0.166,-0.226,1.428,-8.399,2.130,5.231
0.164,-0.225,1.413,-8.176,2.019,4.933
0.161,-0.224,1.399,-8.053,1.886,4.637
0.158,-0.223,1.385,-8.026,1.766,4.355
0.156,-0.223,1.370,-8.038,1.665,4.091
0.154,-0.224,1.357,-8.012,1.583,3.822
0.152,-0.226,1.344,-7.892,1.522,3.524
0.150,-0.227,1.333,-7.662,1.465,3.198
0.149,-0.228,1.322,-7.381,1.426,2.880
0.147,-0.229,1.312,-7.074,1.397,2.565
0.146,-0.230,1.302,-6.759,1.377,2.249
0.144,-0.232,1.293,-6.482,1.339,1.934
0.143,-0.233,1.285,-6.268,1.272,1.623
0.141,-0.234,1.276,-6.141,1.173,1.345
0.140,-0.234,1.267,-6.100,1.060,1.114
0.139,-0.236,1.258,-6.128,0.926,0.935
0.137,-0.237,1.249,-6.206,0.764,0.787
0.136,-0.238,1.240,-6.274,0.607,0.675
0.135,-0.239,1.231,-6.278,0.461,0.606
0.134,-0.241,1.222,-6.160,0.336,0.562
0.134,-0.243,1.214,-5.911,0.260,0.531
0.133,-0.244,1.207,-5.564,0.220,0.537
0.132,-0.245,1.200,-5.103,0.181,0.549
0.131,-0.245,1.194,-4.644,0.148,0.562
0.130,-0.244,1.189,-4.254,0.102,0.579
0.128,-0.244,1.183,-3.982,0.050,0.580
0.127,-0.243,1.179,-3.824,-0.019,0.563
0.126,-0.243,1.174,-3.758,-0.117,0.514
0.124,-0.243,1.169,-3.780,-0.247,0.460
0.123,-0.243,1.163,-3.840,-0.388,0.395
0.121,-0.243,1.157,-3.906,-0.513,0.320
0.120,-0.243,1.151,-3.942,-0.603,0.228
0.119,-0.243,1.145,-3.967,-0.680,0.161
0.118,-0.244,1.140,-3.959,-0.764,0.108
0.117,-0.244,1.135,-3.908,-0.842,0.064
0.117,-0.244,1.131,-3.812,-0.900,0.038
0.116,-0.244,1.126,-3.692,-0.945,0.020
0.115,-0.244,1.123,-3.564,-0.989,0.022
0.114,-0.243,1.119,-3.451,-1.045,0.049
0.113,-0.243,1.116,-3.396,-1.103,0.083
0.113,-0.242,1.113,-3.397,-1.179,0.114
0.112,-0.242,1.110,-3.425,-1.246,0.118
0.111,-0.242,1.107,-3.475,-1.269,0.086
0.111,-0.243,1.103,-3.505,-1.279,0.052
0.111,-0.243,1.100,-3.501,-1.301,0.030
0.110,-0.243,1.097,-3.486,-1.332,0.035
0.110,-0.243,1.094,-3.478,-1.360,0.058
0.109,-0.244,1.091,-3.452,-1.382,0.103
0.109,-0.244,1.087,-3.404,-1.386,0.155
0.109,-0.244,1.083,-3.356,-1.381,0.212
0.108,-0.243,1.080,-3.316,-1.381,0.288
0.108,-0.243,1.078,-3.306,-1.397,0.371
0.108,-0.243,1.076,-3.315,-1.435,0.435
0.107,-0.243,1.073,-3.330,-1.471,0.485
0.107,-0.243,1.071,-3.342,-1.518,0.524
0.107,-0.243,1.069,-3.351,-1.559,0.544
0.106,-0.243,1.066,-3.368,-1.596,0.565
0.106,-0.243,1.064,-3.384,-1.649,0.591
0.106,-0.243,1.061,-3.379,-1.718,0.608
0.105,-0.243,1.059,-3.375,-1.809,0.631
0.105,-0.243,1.057,-3.384,-1.899,0.655
0.104,-0.243,1.054,-3.371,-1.963,0.681
0.104,-0.243,1.052,-3.311,-2.000,0.709
0.104,-0.243,1.050,-3.200,-2.005,0.758
0.104,-0.243,1.048,-3.052,-1.994,0.813
0.103,-0.242,1.046,-2.907,-1.966,0.866
0.103,-0.242,1.045,-2.784,-1.933,0.903
0.103,-0.241,1.044,-2.705,-1.907,0.914
0.102,-0.241,1.042,-2.678,-1.890,0.920
0.102,-0.241,1.041,-2.679,-1.877,0.914
0.102,-0.241,1.040,-2.700,-1.867,0.903
0.102,-0.241,1.039,-2.735,-1.879,0.887
0.102,-0.241,1.038,-2.771,-1.900,0.860
0.102,-0.241,1.036,-2.799,-1.926,0.816
0.102,-0.242,1.035,-2.822,-1.944,0.779
0.102,-0.242,1.033,-2.820,-1.939,0.751
0.103,-0.242,1.030,-2.792,-1.901,0.739
0.103,-0.242,1.029,-2.736,-1.838,0.743
0.103,-0.242,1.027,-2.666,-1.756,0.755
0.103,-0.242,1.026,-2.586,-1.669,0.752
0.103,-0.242,1.025,-2.519,-1.595,0.751
0.102,-0.242,1.024,-2.476,-1.549,0.738
0.102,-0.242,1.023,-2.470,-1.518,0.703
0.102,-0.242,1.022,-2.502,-1.511,0.649
0.102,-0.242,1.021,-2.558,-1.538,0.590
0.101,-0.242,1.020,-2.614,-1.601,0.539
0.101,-0.243,1.019,-2.665,-1.699,0.508
0.101,-0.243,1.018,-2.683,-1.810,0.493
0.101,-0.244,1.016,-2.645,-1.901,0.479
0.101,-0.244,1.014,-2.545,-1.964,0.474
0.101,-0.244,1.013,-2.415,-2.006,0.519
0.101,-0.244,1.011,-2.270,-2.014,0.573
0.101,-0.244,1.010,-2.139,-1.994,0.621
0.102,-0.244,1.014,-2.031,-1.947,0.629
0.102,-0.244,1.014,-1.955,-1.899,0.594
0.101,-0.243,1.013,-1.923,-1.872,0.527
0.101,-0.243,1.013,-1.944,-1.851,0.447
0.101,-0.243,1.012,-1.991,-1.845,0.363
0.101,-0.243,1.012,-2.032,-1.883,0.285
0.100,-0.244,1.011,-2.077,-1.939,0.209
0.100,-0.244,1.011,-2.121,-2.009,0.148
0.100,-0.244,1.010,-2.149,-2.112,0.104
0.100,-0.245,1.009,-2.162,-2.209,0.078
0.100,-0.245,1.007,-2.150,-2.236,0.055
0.101,-0.246,1.006,-2.096,-2.188,0.041
0.101,-0.246,1.006,-1.996,-2.131,0.060
0.101,-0.246,1.006,-1.875,-2.067,0.084
0.101,-0.245,1.006,-1.762,-1.996,0.100
0.100,-0.246,1.006,-1.664,-1.933,0.107
0.100,-0.246,1.006,-1.603,-1.888,0.095
0.100,-0.246,1.006,-1.600,-1.867,0.058
0.099,-0.245,1.006,-1.666,-1.867,-0.003
0.099,-0.245,1.006,-1.813,-1.887,-0.077
0.098,-0.245,1.006,-1.993,-1.931,-0.144
0.098,-0.246,1.004,-2.158,-1.998,-0.194
0.098,-0.246,1.003,-2.257,-2.065,-0.219
0.098,-0.247,1.002,-2.278,-2.106,-0.228
0.099,-0.248,1.001,-2.182,-2.134,-0.207
0.099,-0.249,1.000,-2.017,-2.148,-0.154
0.099,-0.249,0.999,-1.827,-2.147,-0.090
0.099,-0.249,0.999,-1.655,-2.138,-0.027
0.100,-0.249,0.998,-1.531,-2.131,0.022
0.100,-0.249,0.998,-1.482,-2.140,0.064
0.100,-0.249,0.997,-1.476,-2.172,0.092
0.100,-0.249,0.997,-1.493,-2.227,0.097
0.100,-0.249,0.996,-1.512,-2.279,0.087
0.100,-0.248,0.995,-1.531,-2.320,0.070
0.100,-0.248,0.995,-1.542,-2.353,0.047
0.100,-0.248,0.994,-1.533,-2.382,0.024
0.101,-0.248,0.994,-1.498,-2.419,0.003
0.101,-0.248,0.994,-1.452,-2.451,-0.015
0.101,-0.248,0.993,-1.403,-2.489,-0.027
0.101,-0.248,0.993,-1.365,-2.534,-0.034
0.101,-0.248,0.994,-1.342,-2.585,-0.033
0.101,-0.247,0.994,-1.344,-2.644,-0.030
0.101,-0.247,0.995,-1.341,-2.702,-0.033
0.101,-0.247,0.995,-1.345,-2.759,-0.039
0.101,-0.247,0.995,-1.350,-2.819,-0.047
0.101,-0.247,0.995,-1.351,-2.871,-0.048
0.102,-0.247,0.995,-1.341,-2.917,-0.047
0.102,-0.247,0.994,-1.322,-2.945,-0.047
0.102,-0.247,0.993,-1.296,-2.932,-0.048
0.103,-0.248,0.993,-1.242,-2.888,-0.028
0.103,-0.248,0.992,-1.144,-2.840,0.025
0.104,-0.248,0.993,-1.015,-2.756,0.092
0.104,-0.248,0.993,-0.887,-2.670,0.143
0.104,-0.248,0.994,-0.792,-2.587,0.178
0.104,-0.248,0.995,-0.765,-2.531,0.188
0.104,-0.248,0.996,-0.780,-2.497,0.182
0.104,-0.247,0.996,-0.827,-2.490,0.148
0.104,-0.247,0.997,-0.908,-2.498,0.121
0.104,-0.247,0.996,-0.970,-2.514,0.102
0.104,-0.248,0.996,-1.019,-2.525,0.088
0.104,-0.248,0.995,-1.042,-2.538,0.080
0.104,-0.248,0.994,-1.059,-2.545,0.075
0.104,-0.248,0.994,-1.066,-2.550,0.080
0.104,-0.248,0.993,-1.045,-2.549,0.094
0.104,-0.249,0.993,-0.978,-2.537,0.112
0.105,-0.249,0.994,-0.894,-2.523,0.135
0.104,-0.248,0.994,-0.823,-2.516,0.139
0.105,-0.248,0.995,-0.780,-2.512,0.121
0.105,-0.248,0.995,-0.774,-2.510,0.091
0.105,-0.247,0.996,-0.805,-2.514,0.054
0.105,-0.247,0.996,-0.848,-2.526,0.017
0.105,-0.247,0.996,-0.899,-2.544,-0.017
0.105,-0.248,0.996,-0.932,-2.564,-0.047
0.105,-0.248,0.996,-0.930,-2.578,-0.071
0.105,-0.248,0.995,-0.899,-2.576,-0.091
0.106,-0.248,0.995,-0.842,-2.565,-0.083

0.224,-0.065,1.614,0.119,-14.074,-1.797
0.225,-0.067,1.650,0.716,-22.475,-3.372
0.226,-0.071,1.682,0.778,-27.508,-4.810
0.226,-0.075,1.709,0.258,-31.006,-6.458
0.225,-0.081,1.732,-1.142,-34.081,-8.351
0.224,-0.087,1.750,-3.505,-36.804,-10.609
0.223,-0.093,1.762,-6.904,-39.230,-12.914
0.222,-0.101,1.770,-10.276,-41.296,-15.025
0.222,-0.108,1.772,-12.927,-42.968,-16.776
0.222,-0.115,1.772,-14.617,-44.415,-18.091
0.222,-0.120,1.771,-15.216,-45.715,-18.811
0.223,-0.124,1.768,-15.320,-46.764,-19.134
0.224,-0.127,1.765,-15.112,-47.458,-19.125
0.225,-0.129,1.760,-14.716,-47.858,-18.874
0.227,-0.130,1.755,-14.179,-47.967,-18.454
0.228,-0.131,1.749,-13.573,-47.868,-17.927
0.229,-0.132,1.741,-13.014,-47.620,-17.354
0.230,-0.132,1.731,-12.595,-47.202,-16.788
0.231,-0.132,1.718,-12.330,-46.659,-16.283
0.232,-0.132,1.705,-12.186,-46.045,-15.843
0.232,-0.131,1.690,-12.127,-45.377,-15.465
0.231,-0.130,1.675,-12.099,-44.682,-15.127
0.231,-0.128,1.659,-12.086,-43.936,-14.807
0.230,-0.126,1.642,-12.046,-43.151,-14.471
0.230,-0.124,1.624,-11.890,-42.334,-14.085
0.229,-0.123,1.607,-11.628,-41.492,-13.644
0.228,-0.121,1.590,-11.272,-40.610,-13.156
0.228,-0.120,1.573,-10.845,-39.698,-12.653
0.228,-0.119,1.558,-10.387,-38.776,-12.162
0.229,-0.119,1.542,-9.992,-37.897,-11.715
0.229,-0.118,1.526,-9.706,-37.058,-11.327
0.229,-0.118,1.510,-9.542,-36.239,-11.001
0.230,-0.118,1.494,-9.482,-35.464,-10.745
0.230,-0.118,1.478,-9.498,-34.708,-10.554
0.230,-0.119,1.462,-9.520,-33.968,-10.419
0.230,-0.120,1.448,-9.514,-33.276,-10.307
0.229,-0.120,1.433,-9.496,-32.622,-10.216
0.230,-0.119,1.418,-9.457,-31.969,-10.130
0.230,-0.120,1.404,-9.400,-31.307,-10.048
0.230,-0.120,1.390,-9.331,-30.639,-9.949
0.231,-0.121,1.377,-9.252,-30.002,-9.819
0.231,-0.121,1.364,-9.172,-29.398,-9.674
0.232,-0.122,1.352,-9.102,-28.849,-9.511
0.232,-0.124,1.340,-8.993,-28.341,-9.340
0.233,-0.125,1.329,-8.834,-27.878,-9.158
0.233,-0.127,1.317,-8.583,-27.453,-8.965
0.234,-0.128,1.306,-8.207,-27.017,-8.760
0.235,-0.128,1.295,-7.704,-26.551,-8.531
0.236,-0.129,1.285,-7.180,-26.054,-8.297
0.238,-0.129,1.276,-6.688,-25.554,-8.078
0.238,-0.129,1.267,-6.304,-25.074,-7.888
0.239,-0.129,1.259,-6.064,-24.615,-7.740
0.240,-0.130,1.251,-5.962,-24.189,-7.627
0.241,-0.130,1.243,-5.923,-23.797,-7.541
0.242,-0.131,1.235,-5.914,-23.454,-7.470
0.243,-0.132,1.228,-5.904,-23.143,-7.405
0.244,-0.132,1.220,-5.855,-22.852,-7.311
0.245,-0.133,1.212,-5.696,-22.568,-7.197
0.246,-0.134,1.204,-5.481,-22.284,-7.049
0.248,-0.133,1.197,-5.240,-21.979,-6.873
0.250,-0.133,1.191,-4.985,-21.649,-6.677
0.251,-0.133,1.184,-4.713,-21.306,-6.454
0.252,-0.134,1.178,-4.436,-20.965,-6.234
0.254,-0.134,1.173,-4.201,-20.620,-6.041
0.255,-0.134,1.168,-4.011,-20.278,-5.871
0.256,-0.134,1.163,-3.859,-19.942,-5.725
0.257,-0.135,1.158,-3.749,-19.627,-5.597
0.258,-0.135,1.153,-3.664,-19.337,-5.474
0.259,-0.135,1.147,-3.577,-19.054,-5.344
0.260,-0.135,1.142,-3.469,-18.752,-5.216
0.261,-0.135,1.137,-3.334,-18.426,-5.065
0.262,-0.136,1.132,-3.189,-18.077,-4.897
0.263,-0.136,1.127,-3.012,-17.701,-4.704
0.264,-0.136,1.123,-2.820,-17.324,-4.492
0.265,-0.137,1.119,-2.624,-16.968,-4.274
0.266,-0.137,1.116,-2.459,-16.637,-4.065
0.267,-0.137,1.112,-2.318,-16.318,-3.863
0.268,-0.138,1.107,-2.200,-15.995,-3.686
0.269,-0.138,1.103,-2.122,-15.679,-3.521
0.269,-0.138,1.100,-2.084,-15.369,-3.378
0.270,-0.138,1.096,-2.080,-15.061,-3.265
0.270,-0.138,1.092,-2.096,-14.763,-3.168
0.270,-0.138,1.089,-2.112,-14.480,-3.083
0.271,-0.138,1.085,-2.137,-14.206,-3.001
0.271,-0.138,1.082,-2.145,-13.931,-2.911
0.271,-0.138,1.078,-2.105,-13.666,-2.814
0.271,-0.139,1.075,-2.021,-13.404,-2.698
0.272,-0.139,1.071,-1.912,-13.136,-2.565
0.273,-0.139,1.068,-1.789,-12.885,-2.416
0.273,-0.139,1.065,-1.676,-12.658,-2.269
0.273,-0.140,1.062,-1.573,-12.456,-2.138
0.274,-0.140,1.059,-1.488,-12.280,-2.015
0.274,-0.140,1.056,-1.421,-12.109,-1.908
0.274,-0.139,1.052,-1.379,-11.931,-1.820
0.275,-0.139,1.050,-1.357,-11.737,-1.754
0.275,-0.139,1.047,-1.351,-11.563,-1.699
0.275,-0.138,1.045,-1.346,-11.389,-1.667
0.276,-0.138,1.042,-1.339,-11.183,-1.646
0.276,-0.138,1.040,-1.320,-10.942,-1.627
0.277,-0.138,1.038,-1.301,-10.684,-1.610
0.278,-0.138,1.037,-1.293,-10.424,-1.605
0.278,-0.138,1.036,-1.319,-10.179,-1.607
0.279,-0.138,1.035,-1.382,-9.954,-1.616
0.279,-0.138,1.033,-1.490,-9.781,-1.624
0.279,-0.139,1.031,-1.599,-9.639,-1.631
0.280,-0.139,1.029,-1.676,-9.494,-1.624
0.280,-0.139,1.027,-1.714,-9.341,-1.601
0.281,-0.140,1.026,-1.721,-9.183,-1.573
0.281,-0.139,1.024,-1.727,-9.028,-1.550
0.282,-0.139,1.023,-1.764,-8.874,-1.541
0.282,-0.139,1.022,-1.844,-8.734,-1.551
0.283,-0.139,1.021,-1.984,-8.607,-1.584
0.283,-0.139,1.019,-2.181,-8.515,-1.646
0.283,-0.139,1.017,-2.380,-8.465,-1.713
0.283,-0.139,1.014,-2.536,-8.458,-1.773
0.284,-0.140,1.011,-2.596,-8.421,-1.831
0.285,-0.141,1.009,-2.572,-8.353,-1.874
0.285,-0.140,1.007,-2.492,-8.269,-1.894
0.286,-0.139,1.006,-2.384,-8.151,-1.898
0.287,-0.139,1.004,-2.270,-7.982,-1.879
0.287,-0.139,1.003,-2.182,-7.785,-1.851
0.288,-0.139,1.003,-2.120,-7.574,-1.828
0.288,-0.140,1.003,-2.090,-7.359,-1.824
0.289,-0.140,1.002,-2.088,-7.166,-1.833
0.289,-0.141,1.002,-2.112,-7.014,-1.851
0.290,-0.141,1.002,-2.162,-6.880,-1.877
0.290,-0.141,1.001,-2.208,-6.762,-1.908
0.291,-0.142,1.000,-2.222,-6.649,-1.935
0.291,-0.142,1.000,-2.187,-6.555,-1.943
0.291,-0.143,0.999,-2.095,-6.458,-1.925
0.292,-0.143,0.998,-1.974,-6.351,-1.877
0.292,-0.143,0.997,-1.836,-6.213,-1.811
0.292,-0.142,0.997,-1.724,-6.048,-1.744
0.292,-0.142,0.997,-1.625,-5.867,-1.684
0.293,-0.142,0.997,-1.562,-5.689,-1.636
0.293,-0.142,0.996,-1.528,-5.508,-1.615
0.293,-0.142,0.996,-1.534,-5.331,-1.615
0.293,-0.142,0.996,-1.565,-5.164,-1.628
0.293,-0.142,0.996,-1.597,-5.053,-1.647
0.293,-0.143,0.995,-1.599,-4.945,-1.668
0.294,-0.143,0.995,-1.581,-4.813,-1.691
0.294,-0.143,0.994,-1.519,-4.675,-1.698
0.294,-0.143,0.993,-1.437,-4.551,-1.681
0.294,-0.143,0.992,-1.372,-4.457,-1.656
0.294,-0.143,0.991,-1.306,-4.333,-1.618
0.294,-0.143,0.989,-1.233,-4.160,-1.561
0.294,-0.143,0.988,-1.169,-3.947,-1.503
0.294,-0.143,0.988,-1.107,-3.719,-1.453
0.294,-0.143,0.988,-1.069,-3.512,-1.418
0.294,-0.143,0.988,-1.054,-3.329,-1.404
0.294,-0.144,0.988,-1.063,-3.168,-1.403
0.294,-0.144,0.987,-1.112,-3.026,-1.405
0.294,-0.145,0.987,-1.176,-2.910,-1.409
0.293,-0.145,0.986,-1.252,-2.812,-1.417
0.293,-0.146,0.985,-1.327,-2.758,-1.422
0.293,-0.146,0.984,-1.388,-2.715,-1.425
0.293,-0.147,0.982,-1.432,-2.638,-1.412
0.293,-0.147,0.981,-1.460,-2.509,-1.394
0.292,-0.147,0.980,-1.477,-2.367,-1.366
0.292,-0.148,0.979,-1.473,-2.240,-1.325
0.292,-0.148,0.979,-1.456,-2.125,-1.290
0.292,-0.149,0.978,-1.431,-2.030,-1.247
0.292,-0.150,0.978,-1.400,-1.949,-1.196
0.292,-0.150,0.977,-1.378,-1.885,-1.140
0.291,-0.151,0.976,-1.382,-1.847,-1.082
0.291,-0.151,0.975,-1.417,-1.831,-1.020
0.291,-0.152,0.975,-1.467,-1.823,-0.975
0.291,-0.152,0.974,-1.519,-1.824,-0.942
0.291,-0.152,0.973,-1.575,-1.841,-0.930
0.290,-0.153,0.972,-1.624,-1.848,-0.921
0.290,-0.152,0.971,-1.674,-1.821,-0.913
0.290,-0.152,0.970,-1.730,-1.774,-0.895
0.290,-0.152,0.970,-1.772,-1.735,-0.864
0.289,-0.153,0.970,-1.804,-1.706,-0.838
0.289,-0.153,0.970,-1.830,-1.692,-0.814
0.289,-0.153,0.970,-1.864,-1.716,-0.793
0.289,-0.153,0.971,-1.899,-1.755,-0.768
0.289,-0.153,0.971,-1.945,-1.825,-0.747
0.288,-0.153,0.971,-1.980,-1.909,-0.714
0.288,-0.153,0.971,-1.992,-1.978,-0.681
0.289,-0.153,0.970,-1.971,-2.021,-0.635
0.289,-0.152,0.970,-1.933,-2.038,-0.586
0.289,-0.152,0.970,-1.897,-2.053,-0.536
0.289,-0.151,0.970,-1.856,-2.066,-0.486
0.289,-0.151,0.971,-1.810,-2.053,-0.446
0.289,-0.150,0.971,-1.773,-2.014,-0.404
0.290,-0.150,0.972,-1.746,-1.978,-0.371
0.290,-0.150,0.972,-1.726,-1.941,-0.363
0.290,-0.149,0.973,-1.759,-1.920,-0.370
0.290,-0.149,0.974,-1.812,-1.917,-0.391
0.291,-0.149,0.974,-1.877,-1.926,-0.416
0.291,-0.149,0.974,-1.924,-1.946,-0.437
0.291,-0.149,0.974,-1.931,-1.974,-0.442
0.291,-0.149,0.974,-1.896,-1.993,-0.434
0.292,-0.149,0.974,-1.828,-1.988,-0.412
0.292,-0.148,0.973,-1.728,-1.978,-0.370
0.292,-0.148,0.973,-1.589,-1.962,-0.323
0.292,-0.148,0.974,-1.441,-1.937,-0.275
0.292,-0.147,0.974,-1.308,-1.909,-0.238

0.397,-0.307,1.163,-1.115,-12.726,-1.704
0.397,-0.304,1.181,-1.005,-22.319,-3.178
0.398,-0.299,1.198,-1.171,-30.888,-4.835
0.401,-0.293,1.215,-2.027,-38.687,-6.619
0.405,-0.288,1.233,-3.631,-45.611,-8.465
0.411,-0.284,1.254,-5.957,-51.543,-10.417
0.417,-0.281,1.275,-8.742,-57.064,-12.379
0.422,-0.280,1.294,-11.601,-62.431,-14.200
0.429,-0.280,1.312,-14.243,-67.433,-15.801
0.438,-0.281,1.328,-16.593,-71.371,-17.241
0.449,-0.282,1.344,-18.475,-74.445,-18.465
0.459,-0.282,1.359,-19.893,-76.783,-19.356
0.470,-0.279,1.374,-20.912,-78.467,-19.859
0.479,-0.274,1.390,-21.898,-79.510,-20.126
0.484,-0.268,1.407,-22.987,-79.840,-20.202
0.491,-0.262,1.423,-24.137,-79.735,-20.129
0.498,-0.257,1.437,-25.264,-79.250,-19.915
0.504,-0.252,1.450,-26.235,-78.393,-19.631
0.509,-0.247,1.461,-27.025,-77.239,-19.288
0.514,-0.242,1.471,-27.646,-75.822,-18.896
0.518,-0.236,1.477,-28.103,-74.326,-18.454
0.521,-0.229,1.481,-28.433,-72.776,-17.918
0.524,-0.223,1.481,-28.751,-71.181,-17.383
0.527,-0.218,1.478,-29.090,-69.191,-16.848
0.529,-0.214,1.474,-29.395,-66.966,-16.269
0.529,-0.210,1.468,-29.502,-64.686,-15.638
0.528,-0.206,1.461,-29.460,-62.349,-14.925
0.526,-0.203,1.455,-29.287,-60.082,-14.120
0.522,-0.199,1.448,-28.968,-58.069,-13.242
0.518,-0.195,1.442,-28.503,-56.275,-12.301
0.513,-0.192,1.433,-27.790,-54.662,-11.295
0.510,-0.188,1.424,-26.816,-53.168,-10.236
0.506,-0.184,1.412,-25.636,-51.672,-9.197
0.502,-0.180,1.399,-24.341,-50.150,-8.251
0.499,-0.177,1.386,-23.060,-48.492,-7.581
0.497,-0.173,1.372,-22.017,-46.659,-7.096
0.495,-0.169,1.357,-21.262,-44.741,-6.758
0.492,-0.166,1.344,-20.805,-42.754,-6.575
0.489,-0.165,1.332,-20.550,-40.851,-6.493
0.486,-0.164,1.320,-20.433,-39.101,-6.505
0.483,-0.165,1.309,-20.298,-37.528,-6.563
0.480,-0.166,1.298,-20.094,-36.180,-6.657
0.477,-0.168,1.286,-19.833,-34.985,-6.748
0.475,-0.170,1.275,-19.501,-33.936,-6.770
0.473,-0.172,1.262,-19.089,-32.943,-6.725
0.472,-0.174,1.248,-18.572,-31.928,-6.635
0.471,-0.175,1.235,-17.992,-30.870,-6.497
0.470,-0.176,1.222,-17.396,-29.761,-6.311
0.469,-0.178,1.210,-16.827,-28.567,-6.107
0.468,-0.179,1.199,-16.281,-27.332,-5.923
0.467,-0.181,1.189,-15.765,-26.158,-5.751
0.465,-0.182,1.180,-15.272,-25.065,-5.612
0.464,-0.184,1.172,-14.832,-24.052,-5.507
0.463,-0.185,1.164,-14.478,-23.138,-5.440
0.461,-0.187,1.156,-14.179,-22.335,-5.395
0.460,-0.189,1.149,-13.916,-21.657,-5.371
0.459,-0.191,1.141,-13.703,-21.096,-5.346
0.458,-0.193,1.133,-13.508,-20.609,-5.310
0.457,-0.194,1.125,-13.316,-20.149,-5.248
0.456,-0.196,1.116,-13.076,-19.688,-5.152
0.456,-0.197,1.108,-12.756,-19.179,-5.011
0.456,-0.198,1.100,-12.351,-18.633,-4.822
0.455,-0.199,1.094,-11.839,-18.052,-4.560
0.454,-0.199,1.087,-11.286,-17.450,-4.263
0.454,-0.199,1.082,-10.747,-16.823,-3.960
0.453,-0.199,1.077,-10.250,-16.215,-3.671
0.452,-0.199,1.072,-9.838,-15.642,-3.405
0.451,-0.199,1.068,-9.581,-15.128,-3.204
0.450,-0.199,1.063,-9.421,-14.683,-3.045
0.449,-0.199,1.060,-9.328,-14.331,-2.928
0.447,-0.199,1.055,-9.285,-14.098,-2.834
0.447,-0.199,1.050,-9.241,-13.892,-2.746
0.446,-0.200,1.044,-9.130,-13.666,-2.651
0.446,-0.200,1.039,-8.900,-13.403,-2.532
0.445,-0.200,1.034,-8.533,-13.079,-2.363
0.445,-0.200,1.030,-8.056,-12.694,-2.157
0.444,-0.199,1.027,-7.570,-12.260,-1.955
0.444,-0.198,1.024,-7.133,-11.801,-1.764
0.443,-0.198,1.021,-6.772,-11.351,-1.588
0.443,-0.197,1.019,-6.511,-10.956,-1.445
0.442,-0.197,1.016,-6.369,-10.618,-1.355
0.441,-0.196,1.014,-6.355,-10.341,-1.324
0.441,-0.196,1.012,-6.402,-10.143,-1.320
0.440,-0.196,1.009,-6.468,-10.043,-1.331
0.439,-0.196,1.006,-6.518,-9.975,-1.342
0.438,-0.196,1.002,-6.512,-9.907,-1.343
0.438,-0.196,0.998,-6.388,-9.809,-1.297
0.437,-0.196,0.995,-6.191,-9.644,-1.225
0.437,-0.196,0.992,-5.932,-9.374,-1.134
0.437,-0.195,0.990,-5.638,-9.053,-1.031
0.436,-0.194,0.988,-5.370,-8.720,-0.931
0.435,-0.193,0.986,-5.183,-8.392,-0.854
0.434,-0.193,0.985,-5.072,-8.099,-0.811
0.433,-0.193,0.984,-5.020,-7.882,-0.804
0.432,-0.193,0.983,-5.003,-7.735,-0.827
0.431,-0.192,0.982,-5.013,-7.636,-0.870
0.430,-0.193,0.980,-5.010,-7.588,-0.912
0.429,-0.193,0.978,-4.975,-7.595,-0.936
0.429,-0.194,0.976,-4.889,-7.606,-0.949
0.428,-0.194,0.974,-4.733,-7.572,-0.954
0.428,-0.194,0.971,-4.467,-7.462,-0.925
0.428,-0.194,0.968,-4.160,-7.284,-0.878
0.427,-0.194,0.967,-3.857,-7.033,-0.814
0.427,-0.193,0.966,-3.605,-6.746,-0.743
0.427,-0.193,0.965,-3.414,-6.453,-0.669
0.426,-0.193,0.965,-3.310,-6.167,-0.610
0.426,-0.193,0.964,-3.273,-5.896,-0.581
0.425,-0.193,0.963,-3.289,-5.655,-0.580
0.425,-0.194,0.963,-3.347,-5.466,-0.612
0.424,-0.195,0.962,-3.403,-5.315,-0.654
0.424,-0.196,0.960,-3.433,-5.198,-0.700
0.423,-0.197,0.959,-3.398,-5.091,-0.743
0.423,-0.198,0.957,-3.284,-4.991,-0.770
0.423,-0.199,0.956,-3.081,-4.875,-0.770
0.423,-0.199,0.954,-2.807,-4.734,-0.745
0.422,-0.199,0.953,-2.512,-4.563,-0.697
0.422,-0.199,0.951,-2.257,-4.350,-0.635
0.422,-0.199,0.951,-2.092,-4.114,-0.572
0.421,-0.198,0.950,-2.022,-3.872,-0.519
0.421,-0.198,0.950,-2.015,-3.648,-0.487
0.421,-0.199,0.949,-2.046,-3.466,-0.478
0.420,-0.199,0.948,-2.113,-3.331,-0.487
0.420,-0.200,0.948,-2.200,-3.252,-0.514
0.420,-0.201,0.946,-2.272,-3.209,-0.555
0.419,-0.201,0.945,-2.301,-3.188,-0.600
0.419,-0.202,0.943,-2.271,-3.187,-0.633
0.419,-0.202,0.942,-2.186,-3.180,-0.649
0.419,-0.203,0.940,-2.066,-3.149,-0.634
0.419,-0.203,0.939,-1.939,-3.089,-0.598
0.418,-0.202,0.938,-1.833,-2.992,-0.557
0.418,-0.202,0.938,-1.761,-2.875,-0.512
0.418,-0.201,0.937,-1.738,-2.751,-0.473
0.418,-0.201,0.937,-1.764,-2.626,-0.447
0.417,-0.202,0.937,-1.819,-2.526,-0.430
0.417,-0.202,0.937,-1.882,-2.459,-0.413
0.417,-0.202,0.936,-1.920,-2.407,-0.404
0.417,-0.202,0.936,-1.931,-2.361,-0.390
0.416,-0.203,0.935,-1.916,-2.336,-0.365
0.416,-0.203,0.935,-1.874,-2.318,-0.341
0.416,-0.203,0.933,-1.789,-2.291,-0.309
0.416,-0.204,0.932,-1.675,-2.211,-0.275
0.416,-0.203,0.932,-1.571,-2.100,-0.227
0.416,-0.203,0.931,-1.508,-1.981,-0.176
0.416,-0.202,0.931,-1.484,-1.839,-0.126
0.416,-0.202,0.931,-1.493,-1.694,-0.082
0.416,-0.202,0.931,-1.527,-1.552,-0.048
0.415,-0.202,0.931,-1.590,-1.426,-0.034
0.415,-0.202,0.932,-1.668,-1.319,-0.040
0.414,-0.202,0.932,-1.747,-1.241,-0.054
0.413,-0.202,0.931,-1.804,-1.178,-0.071
0.413,-0.202,0.931,-1.839,-1.129,-0.071
0.412,-0.202,0.931,-1.857,-1.110,-0.067
0.411,-0.202,0.931,-1.849,-1.118,-0.047
0.411,-0.203,0.930,-1.778,-1.100,-0.008
0.410,-0.203,0.929,-1.642,-1.033,0.037
0.410,-0.203,0.928,-1.460,-0.925,0.102
0.410,-0.203,0.928,-1.267,-0.796,0.155
0.409,-0.203,0.928,-1.095,-0.669,0.198
0.409,-0.202,0.929,-0.969,-0.575,0.217
0.408,-0.202,0.929,-0.912,-0.503,0.218
0.408,-0.202,0.929,-0.915,-0.445,0.198
0.408,-0.202,0.929,-0.982,-0.388,0.148
0.407,-0.202,0.929,-1.054,-0.337,0.093
0.407,-0.202,0.929,-1.116,-0.302,0.044
0.407,-0.202,0.929,-1.143,-0.292,0.007
0.406,-0.203,0.928,-1.144,-0.288,-0.013
0.406,-0.203,0.927,-1.118,-0.270,-0.011
0.406,-0.203,0.926,-1.074,-0.242,0.009
0.405,-0.203,0.926,-1.010,-0.208,0.029
0.405,-0.203,0.925,-0.915,-0.164,0.051
0.404,-0.203,0.925,-0.791,-0.134,0.074
0.404,-0.203,0.925,-0.640,-0.126,0.094
0.403,-0.202,0.924,-0.503,-0.136,0.110
0.403,-0.202,0.924,-0.373,-0.167,0.105
0.402,-0.202,0.924,-0.271,-0.203,0.086
0.402,-0.201,0.925,-0.187,-0.245,0.051
0.402,-0.201,0.925,-0.116,-0.294,0.012
0.402,-0.201,0.926,-0.051,-0.358,-0.031
0.402,-0.201,0.927,-0.006,-0.426,-0.075
0.402,-0.201,0.927,0.023,-0.489,-0.127
0.402,-0.200,0.928,0.039,-0.553,-0.185
0.402,-0.200,0.928,0.057,-0.601,-0.230
0.402,-0.200,0.927,0.098,-0.607,-0.256
0.402,-0.200,0.927,0.169,-0.559,-0.272
0.402,-0.200,0.927,0.240,-0.468,-0.275
0.402,-0.199,0.927,0.305,-0.349,-0.279
0.402,-0.199,0.928,0.368,-0.235,-0.279
0.402,-0.199,0.929,0.427,-0.135,-0.279
0.402,-0.198,0.929,0.468,-0.049,-0.288
0.402,-0.198,0.930,0.489,0.025,-0.301
0.403,-0.198,0.931,0.499,0.090,-0.320
0.403,-0.198,0.932,0.512,0.150,-0.353
0.403,-0.198,0.933,0.532,0.193,-0.385
0.403,-0.198,0.933,0.554,0.213,-0.412
0.403,-0.198,0.934,0.585,0.221,-0.419
0.403,-0.198,0.934,0.619,0.252,-0.415
0.404,-0.197,0.934,0.665,0.332,-0.392
0.404,-0.197,0.935,0.734,0.475,-0.352
0.404,-0.197,0.936,0.834,0.651,-0.297

0.304,-0.303,1.299,1.593,-12.735,-2.462
0.310,-0.300,1.327,2.109,-24.190,-4.545
0.315,-0.298,1.356,2.103,-33.554,-6.617
0.320,-0.297,1.385,1.581,-40.985,-8.821
0.326,-0.296,1.410,0.417,-46.604,-11.135
0.332,-0.296,1.431,-1.371,-50.822,-13.410
0.339,-0.295,1.449,-3.583,-53.892,-15.546
0.345,-0.296,1.463,-5.886,-56.033,-17.480
0.352,-0.297,1.472,-7.818,-57.417,-19.155
0.358,-0.300,1.479,-9.214,-58.245,-20.433
0.364,-0.303,1.484,-9.766,-58.796,-21.106
0.368,-0.306,1.489,-9.858,-59.238,-21.356
0.372,-0.307,1.495,-9.678,-59.558,-21.349
0.376,-0.306,1.500,-9.405,-59.703,-21.185
0.379,-0.303,1.504,-9.209,-59.732,-20.870
0.383,-0.300,1.507,-9.178,-59.575,-20.441
0.386,-0.296,1.507,-9.313,-59.202,-19.989
0.388,-0.291,1.506,-9.674,-58.621,-19.551
0.390,-0.286,1.502,-10.304,-57.790,-19.147
0.392,-0.281,1.497,-11.143,-56.857,-18.781
0.394,-0.277,1.490,-11.949,-55.874,-18.457
0.395,-0.273,1.482,-12.545,-54.858,-18.141
0.396,-0.271,1.473,-12.872,-53.822,-17.805
0.396,-0.269,1.464,-12.934,-52.805,-17.429
0.396,-0.267,1.454,-12.740,-51.826,-16.934
0.395,-0.265,1.444,-12.362,-50.884,-16.347
0.395,-0.262,1.433,-11.851,-49.969,-15.690
0.394,-0.259,1.422,-11.239,-49.091,-14.959
0.393,-0.255,1.411,-10.654,-48.264,-14.160
0.391,-0.250,1.400,-10.250,-47.450,-13.340
0.390,-0.245,1.388,-9.996,-46.618,-12.563
0.389,-0.240,1.376,-9.869,-45.739,-11.857
0.388,-0.235,1.365,-9.838,-44.853,-11.254
0.386,-0.231,1.356,-9.867,-43.928,-10.829
0.385,-0.227,1.346,-9.952,-42.990,-10.525
0.384,-0.224,1.337,-10.040,-42.053,-10.328
0.383,-0.221,1.328,-10.132,-41.143,-10.218
0.382,-0.219,1.319,-10.232,-40.308,-10.171
0.380,-0.217,1.310,-10.339,-39.564,-10.151
0.379,-0.216,1.301,-10.435,-38.887,-10.129
0.378,-0.214,1.291,-10.497,-38.238,-10.113
0.377,-0.213,1.281,-10.564,-37.593,-10.079
0.377,-0.211,1.271,-10.706,-36.956,-9.996
0.377,-0.209,1.262,-10.895,-36.320,-9.873
0.377,-0.208,1.253,-11.037,-35.648,-9.731
0.378,-0.207,1.245,-11.067,-34.849,-9.587
0.379,-0.207,1.237,-10.947,-33.957,-9.433
0.379,-0.207,1.230,-10.643,-32.981,-9.289
0.380,-0.207,1.223,-10.248,-31.941,-9.160
0.380,-0.207,1.216,-9.832,-30.895,-9.038
0.380,-0.207,1.210,-9.431,-29.872,-8.929
0.380,-0.207,1.204,-9.090,-28.885,-8.843
0.380,-0.207,1.198,-8.872,-27.974,-8.763
0.380,-0.207,1.192,-8.736,-27.145,-8.695
0.380,-0.207,1.186,-8.671,-26.427,-8.626
0.380,-0.207,1.180,-8.642,-25.762,-8.559
0.380,-0.207,1.173,-8.588,-25.123,-8.463
0.381,-0.208,1.166,-8.470,-24.496,-8.322
0.382,-0.209,1.159,-8.260,-23.843,-8.152
0.382,-0.209,1.152,-7.952,-23.133,-7.955
0.383,-0.209,1.146,-7.563,-22.390,-7.725
0.384,-0.210,1.140,-7.140,-21.582,-7.489
0.384,-0.209,1.134,-6.731,-20.769,-7.262
0.385,-0.209,1.129,-6.347,-19.999,-7.048
0.385,-0.210,1.124,-6.004,-19.270,-6.858
0.385,-0.210,1.120,-5.691,-18.600,-6.703
0.385,-0.210,1.116,-5.409,-18.072,-6.564
0.385,-0.211,1.112,-5.172,-17.648,-6.430
0.385,-0.211,1.107,-4.968,-17.310,-6.292
0.385,-0.212,1.102,-4.779,-17.042,-6.134
0.386,-0.213,1.097,-4.572,-16.791,-5.949
0.386,-0.213,1.090,-4.326,-16.500,-5.744
0.387,-0.213,1.084,-3.974,-16.139,-5.505
0.388,-0.213,1.077,-3.563,-15.741,-5.239
0.388,-0.212,1.072,-3.126,-15.276,-4.959
0.388,-0.211,1.067,-2.739,-14.782,-4.671
0.389,-0.210,1.062,-2.392,-14.270,-4.402
0.389,-0.211,1.058,-2.038,-13.757,-4.156
0.389,-0.211,1.054,-1.660,-13.281,-3.919
0.389,-0.210,1.050,-1.307,-12.861,-3.697
0.389,-0.209,1.046,-1.014,-12.488,-3.495
0.389,-0.209,1.042,-0.837,-12.154,-3.306
0.389,-0.208,1.039,-0.740,-11.867,-3.132
0.388,-0.208,1.035,-0.697,-11.672,-2.968
0.387,-0.207,1.032,-0.712,-11.501,-2.816
0.387,-0.206,1.028,-0.767,-11.330,-2.683
0.387,-0.206,1.024,-0.807,-11.150,-2.556
0.387,-0.206,1.020,-0.802,-10.916,-2.431
0.387,-0.205,1.017,-0.734,-10.594,-2.288
0.387,-0.204,1.014,-0.606,-10.238,-2.130
0.387,-0.204,1.012,-0.441,-9.867,-1.974
0.386,-0.203,1.010,-0.270,-9.504,-1.838
0.386,-0.203,1.008,-0.115,-9.170,-1.720
0.385,-0.202,1.006,-0.003,-8.871,-1.621
0.385,-0.202,1.004,0.039,-8.601,-1.554
0.384,-0.201,1.003,-0.014,-8.368,-1.528
0.384,-0.201,1.001,-0.110,-8.180,-1.521
0.383,-0.200,0.999,-0.258,-8.012,-1.530
0.383,-0.199,0.996,-0.432,-7.855,-1.554
0.382,-0.199,0.993,-0.568,-7.696,-1.573
0.382,-0.199,0.991,-0.611,-7.521,-1.565
0.382,-0.199,0.988,-0.543,-7.319,-1.528
0.381,-0.199,0.986,-0.356,-7.108,-1.457
0.381,-0.199,0.983,-0.098,-6.911,-1.349
0.381,-0.199,0.981,0.177,-6.726,-1.213
0.381,-0.198,0.978,0.390,-6.519,-1.106
0.381,-0.198,0.977,0.533,-6.311,-1.017
0.381,-0.198,0.975,0.651,-6.133,-0.953
0.381,-0.198,0.974,0.755,-5.999,-0.909
0.381,-0.197,0.973,0.819,-5.898,-0.883
0.381,-0.197,0.972,0.861,-5.842,-0.882
0.381,-0.196,0.970,0.879,-5.808,-0.888
0.381,-0.196,0.968,0.901,-5.778,-0.903
0.381,-0.196,0.967,0.956,-5.754,-0.920
0.381,-0.196,0.965,1.051,-5.735,-0.919
0.380,-0.196,0.963,1.219,-5.688,-0.901
0.381,-0.196,0.961,1.431,-5.615,-0.858
0.381,-0.195,0.960,1.651,-5.518,-0.792
0.381,-0.195,0.959,1.877,-5.391,-0.718
0.381,-0.194,0.959,2.093,-5.264,-0.646
0.381,-0.194,0.959,2.289,-5.146,-0.578
0.381,-0.194,0.959,2.432,-5.058,-0.525
0.381,-0.194,0.959,2.529,-4.996,-0.499
0.381,-0.194,0.959,2.582,-4.984,-0.484
0.382,-0.194,0.959,2.582,-5.006,-0.475
0.382,-0.194,0.958,2.499,-5.042,-0.473
0.382,-0.193,0.957,2.380,-5.073,-0.477
0.383,-0.193,0.956,2.226,-5.095,-0.463
0.383,-0.193,0.955,2.058,-5.059,-0.436
0.384,-0.193,0.954,1.878,-4.971,-0.398
0.384,-0.193,0.954,1.723,-4.827,-0.352
0.385,-0.193,0.953,1.639,-4.640,-0.288
0.385,-0.193,0.954,1.595,-4.424,-0.226
0.385,-0.192,0.954,1.545,-4.194,-0.159
0.385,-0.192,0.954,1.480,-3.966,-0.097
0.384,-0.191,0.954,1.393,-3.761,-0.037
0.384,-0.191,0.954,1.259,-3.587,-0.005
0.383,-0.191,0.954,1.103,-3.451,0.016
0.383,-0.190,0.954,0.936,-3.366,0.028
0.382,-0.190,0.954,0.772,-3.287,0.031
0.382,-0.189,0.953,0.620,-3.197,0.040
0.382,-0.189,0.952,0.493,-3.063,0.052
0.382,-0.189,0.951,0.396,-2.888,0.084
0.382,-0.189,0.950,0.341,-2.675,0.138
0.382,-0.188,0.950,0.299,-2.430,0.218
0.382,-0.188,0.950,0.273,-2.172,0.294
0.381,-0.188,0.950,0.238,-1.912,0.376
0.381,-0.188,0.950,0.205,-1.667,0.451
0.381,-0.187,0.951,0.170,-1.459,0.515
0.380,-0.187,0.951,0.127,-1.283,0.573
0.379,-0.187,0.952,0.074,-1.150,0.604
0.379,-0.187,0.952,0.003,-1.061,0.612
0.378,-0.187,0.952,-0.068,-1.027,0.618
0.378,-0.187,0.952,-0.119,-1.004,0.611
0.377,-0.186,0.952,-0.171,-0.980,0.595
0.377,-0.186,0.951,-0.223,-0.936,0.583
0.377,-0.186,0.950,-0.232,-0.849,0.577
0.377,-0.185,0.949,-0.209,-0.724,0.573
0.377,-0.185,0.949,-0.182,-0.550,0.573
0.377,-0.184,0.949,-0.164,-0.365,0.569
0.376,-0.184,0.949,-0.156,-0.191,0.559
0.376,-0.184,0.949,-0.176,-0.045,0.528
0.376,-0.183,0.950,-0.228,0.078,0.480
0.375,-0.183,0.950,-0.312,0.155,0.423
0.374,-0.183,0.950,-0.426,0.172,0.357
0.374,-0.183,0.950,-0.545,0.156,0.281
0.374,-0.183,0.950,-0.643,0.118,0.215
0.373,-0.183,0.949,-0.704,0.067,0.165
0.373,-0.184,0.948,-0.728,0.028,0.150
0.373,-0.184,0.947,-0.702,0.027,0.140
0.373,-0.184,0.946,-0.620,0.079,0.146
0.373,-0.185,0.946,-0.493,0.139,0.172
0.373,-0.185,0.946,-0.327,0.210,0.210
0.372,-0.185,0.946,-0.146,0.280,0.251
0.372,-0.184,0.947,0.029,0.341,0.288
0.371,-0.184,0.947,0.171,0.383,0.313
0.371,-0.184,0.948,0.273,0.406,0.320
0.370,-0.184,0.949,0.331,0.405,0.317
0.370,-0.184,0.949,0.347,0.384,0.296
0.369,-0.184,0.949,0.327,0.350,0.268
0.369,-0.183,0.949,0.281,0.328,0.234
0.369,-0.183,0.949,0.219,0.315,0.196
0.368,-0.183,0.949,0.173,0.302,0.172
0.368,-0.183,0.949,0.157,0.317,0.164
0.368,-0.183,0.949,0.187,0.377,0.149
0.368,-0.183,0.949,0.259,0.468,0.151
0.367,-0.183,0.949,0.380,0.571,0.169
0.367,-0.183,0.950,0.529,0.684,0.187
0.367,-0.183,0.951,0.669,0.795,0.204
0.366,-0.182,0.951,0.780,0.891,0.219
0.366,-0.182,0.952,0.852,0.973,0.222
0.365,-0.182,0.953,0.836,1.055,0.202
0.365,-0.182,0.953,0.778,1.120,0.171
0.364,-0.182,0.954,0.706,1.170,0.138
0.364,-0.182,0.954,0.621,1.222,0.104
0.364,-0.182,0.954,0.539,1.290,0.076
0.363,-0.182,0.954,0.499,1.379,0.068
0.363,-0.182,0.954,0.506,1.490,0.077
0.363,-0.183,0.954,0.548,1.627,0.101

0.502,-0.308,1.088,0.704,-4.525,-1.827
0.508,-0.306,1.116,0.664,-8.892,-3.812
0.511,-0.305,1.145,0.457,-11.900,-5.959
0.511,-0.306,1.174,0.257,-14.239,-8.144
0.509,-0.308,1.200,0.181,-16.493,-10.148
0.504,-0.311,1.224,0.258,-19.018,-11.801
0.498,-0.312,1.244,0.503,-21.866,-13.117
0.494,-0.312,1.261,0.835,-24.601,-14.185
0.491,-0.310,1.275,1.077,-27.165,-14.987
0.488,-0.308,1.289,1.101,-29.388,-15.561
0.486,-0.307,1.302,0.997,-31.311,-15.989
0.484,-0.305,1.314,0.803,-32.984,-16.281
0.482,-0.302,1.325,0.559,-34.451,-16.462
0.481,-0.300,1.336,0.278,-35.657,-16.559
0.480,-0.297,1.345,0.056,-36.711,-16.572
0.479,-0.296,1.354,-0.055,-37.731,-16.516
0.478,-0.294,1.360,-0.090,-38.664,-16.396
0.477,-0.292,1.363,-0.091,-39.184,-16.219
0.478,-0.289,1.365,-0.074,-39.386,-16.020
0.478,-0.286,1.366,-0.062,-39.365,-15.756
0.477,-0.282,1.366,-0.090,-39.159,-15.432
0.477,-0.278,1.364,-0.192,-38.798,-15.061
0.476,-0.274,1.362,-0.426,-38.309,-14.655
0.474,-0.270,1.359,-0.783,-37.792,-14.218
0.473,-0.266,1.355,-1.209,-37.275,-13.736
0.471,-0.262,1.351,-1.605,-36.752,-13.234
0.468,-0.260,1.348,-1.874,-36.250,-12.676
0.466,-0.257,1.343,-1.981,-35.762,-12.082
0.463,-0.254,1.338,-1.964,-35.270,-11.415
0.461,-0.250,1.332,-1.898,-34.745,-10.722
0.459,-0.245,1.325,-1.883,-34.137,-10.011
0.457,-0.239,1.317,-1.930,-33.454,-9.295
0.455,-0.234,1.309,-2.074,-32.681,-8.611
0.453,-0.230,1.301,-2.292,-31.843,-7.990
0.450,-0.227,1.294,-2.572,-30.936,-7.457
0.448,-0.224,1.288,-2.899,-30.019,-7.022
0.445,-0.222,1.282,-3.209,-29.162,-6.674
0.442,-0.219,1.277,-3.459,-28.372,-6.421
0.438,-0.217,1.272,-3.672,-27.710,-6.201
0.435,-0.214,1.266,-3.815,-27.186,-5.997
0.432,-0.211,1.260,-3.911,-26.759,-5.820
0.429,-0.209,1.253,-3.968,-26.397,-5.670
0.426,-0.207,1.245,-4.001,-26.081,-5.519
0.424,-0.204,1.236,-4.034,-25.751,-5.380
0.423,-0.201,1.226,-4.082,-25.375,-5.255
0.421,-0.197,1.218,-4.150,-24.879,-5.121
0.420,-0.194,1.210,-4.242,-24.293,-4.968
0.419,-0.195,1.204,-4.291,-23.631,-4.842
0.418,-0.194,1.198,-4.283,-22.947,-4.720
0.417,-0.193,1.193,-4.226,-22.266,-4.611
0.415,-0.191,1.188,-4.163,-21.601,-4.536
0.415,-0.190,1.183,-4.128,-20.966,-4.500
0.413,-0.189,1.178,-4.161,-20.374,-4.490
0.413,-0.187,1.173,-4.242,-19.836,-4.497
0.412,-0.186,1.167,-4.384,-19.342,-4.514
0.411,-0.184,1.162,-4.585,-18.905,-4.542
0.411,-0.183,1.157,-4.807,-18.516,-4.593
0.410,-0.182,1.153,-5.006,-18.198,-4.654
0.409,-0.181,1.147,-5.182,-17.898,-4.684
0.408,-0.180,1.140,-5.331,-17.470,-4.705
0.408,-0.179,1.132,-5.431,-16.887,-4.716
0.408,-0.178,1.126,-5.484,-16.166,-4.715
0.408,-0.178,1.121,-5.474,-15.362,-4.718
0.407,-0.177,1.117,-5.418,-14.559,-4.732
0.406,-0.177,1.113,-5.339,-13.845,-4.742
0.405,-0.176,1.108,-5.258,-13.197,-4.742
0.404,-0.176,1.103,-5.196,-12.573,-4.754
0.403,-0.175,1.098,-5.158,-11.994,-4.786
0.402,-0.175,1.093,-5.143,-11.460,-4.822
0.402,-0.175,1.089,-5.162,-10.977,-4.879
0.401,-0.175,1.085,-5.205,-10.554,-4.947
0.400,-0.175,1.080,-5.275,-10.201,-5.028
0.399,-0.175,1.075,-5.367,-9.901,-5.085
0.399,-0.175,1.070,-5.422,-9.617,-5.128
0.398,-0.176,1.065,-5.392,-9.289,-5.160
0.398,-0.177,1.060,-5.252,-8.941,-5.156
0.397,-0.178,1.055,-4.991,-8.601,-5.100
0.396,-0.178,1.050,-4.624,-8.259,-5.028
0.396,-0.178,1.046,-4.258,-7.928,-4.946
0.395,-0.178,1.042,-3.937,-7.629,-4.857
0.394,-0.178,1.039,-3.661,-7.343,-4.777
0.393,-0.178,1.036,-3.438,-7.061,-4.728
0.392,-0.178,1.033,-3.297,-6.842,-4.686
0.391,-0.178,1.030,-3.205,-6.669,-4.645
0.390,-0.179,1.027,-3.144,-6.515,-4.616
0.390,-0.179,1.024,-3.079,-6.378,-4.594
0.389,-0.180,1.021,-2.973,-6.246,-4.582
0.388,-0.180,1.019,-2.828,-6.123,-4.568
0.387,-0.181,1.016,-2.665,-6.016,-4.535
0.387,-0.181,1.014,-2.506,-5.934,-4.491
0.386,-0.181,1.011,-2.380,-5.860,-4.437
0.386,-0.181,1.008,-2.291,-5.777,-4.368
0.385,-0.181,1.005,-2.206,-5.677,-4.293
0.385,-0.182,1.002,-2.099,-5.574,-4.210
0.385,-0.182,1.000,-1.945,-5.454,-4.137
0.385,-0.183,0.997,-1.747,-5.333,-4.066
0.384,-0.183,0.995,-1.497,-5.244,-3.961
0.384,-0.183,0.993,-1.214,-5.159,-3.863
0.383,-0.184,0.991,-0.875,-5.112,-3.743
0.383,-0.184,0.989,-0.501,-5.094,-3.616
0.382,-0.185,0.988,-0.097,-5.109,-3.459
0.381,-0.185,0.986,0.310,-5.153,-3.273
0.381,-0.185,0.985,0.713,-5.215,-3.078
0.380,-0.185,0.983,1.086,-5.284,-2.884
0.380,-0.184,0.982,1.419,-5.342,-2.681
0.380,-0.184,0.980,1.716,-5.365,-2.502
0.380,-0.184,0.978,1.986,-5.341,-2.335
