aX,aY,aZ,gX,gY,gZ
-0.620,-0.893,-0.346,-3.707,19.212,25.153
-0.619,-0.896,-0.357,-7.248,19.412,26.344
-0.617,-0.899,-0.369,-11.297,19.344,27.231
-0.615,-0.904,-0.383,-15.168,19.032,27.785
-0.611,-0.912,-0.398,-18.494,18.499,28.184
-0.607,-0.919,-0.415,-21.397,17.633,28.515
-0.603,-0.926,-0.430,-23.993,16.269,28.820
-0.598,-0.931,-0.444,-26.552,14.319,29.150
-0.594,-0.935,-0.458,-29.059,11.636,29.496
-0.590,-0.938,-0.470,-31.490,7.810,29.822
-0.587,-0.942,-0.481,-33.803,2.996,30.090
-0.583,-0.945,-0.491,-35.977,-2.814,30.286
-0.578,-0.949,-0.500,-37.909,-9.427,30.443
-0.573,-0.952,-0.507,-39.695,-16.697,30.546
-0.567,-0.955,-0.512,-41.607,-25.087,30.547
-0.560,-0.959,-0.516,-43.986,-34.269,30.430
-0.553,-0.963,-0.518,-47.315,-44.254,30.214
-0.545,-0.967,-0.518,-51.402,-55.789,29.920
-0.538,-0.969,-0.516,-56.099,-68.554,29.442
-0.531,-0.971,-0.512,-61.032,-83.243,28.362
-0.523,-0.974,-0.506,-65.332,-100.242,26.717
-0.514,-0.977,-0.498,-69.331,-119.543,24.598
-0.503,-0.978,-0.494,-73.456,-137.859,22.154
-0.491,-0.980,-0.490,-78.033,-153.524,19.618
-0.479,-0.982,-0.487,-82.447,-166.778,16.847
-0.469,-0.983,-0.482,-86.244,-178.874,13.642
-0.458,-0.982,-0.474,-89.612,-190.521,10.012
-0.447,-0.978,-0.462,-92.805,-202.418,5.688
-0.435,-0.972,-0.444,-96.606,-214.699,0.826
-0.423,-0.964,-0.425,-101.160,-225.833,-4.681
-0.409,-0.954,-0.407,-106.260,-234.242,-11.590
-0.396,-0.940,-0.392,-111.563,-242.788,-18.649
-0.387,-0.933,-0.387,-116.944,-252.936,-25.956
-0.374,-0.921,-0.396,-121.138,-259.396,-36.219
-0.358,-0.907,-0.406,-124.531,-263.882,-46.687
-0.336,-0.903,-0.412,-125.673,-269.063,-57.252
-0.311,-0.908,-0.409,-124.687,-276.032,-66.905
-0.279,-0.918,-0.399,-122.128,-281.071,-74.709
-0.244,-0.931,-0.383,-118.959,-283.776,-79.086
-0.209,-0.945,-0.363,-113.419,-284.320,-81.399
-0.176,-0.959,-0.341,-104.860,-282.681,-82.461
-0.149,-0.969,-0.319,-94.165,-279.928,-81.655
-0.124,-0.974,-0.297,-83.590,-276.360,-80.282
-0.099,-0.973,-0.276,-74.762,-271.613,-78.888
-0.074,-0.967,-0.254,-68.221,-265.989,-78.504
-0.051,-0.958,-0.231,-64.063,-259.798,-77.331
-0.032,-0.952,-0.205,-61.141,-253.174,-76.199
-0.017,-0.946,-0.176,-59.068,-246.193,-75.640
-0.002,-0.939,-0.146,-57.721,-239.257,-75.773
0.009,-0.932,-0.117,-56.954,-232.934,-75.625
0.012,-0.930,-0.089,-56.919,-227.106,-75.003
0.020,-0.929,-0.063,-57.222,-221.127,-74.006
0.027,-0.930,-0.039,-57.568,-215.167,-72.783
0.032,-0.930,-0.017,-57.901,-209.355,-71.503
0.036,-0.931,0.002,-58.134,-203.672,-70.028
0.039,-0.933,0.019,-58.038,-198.213,-68.318
0.041,-0.936,0.034,-57.446,-192.976,-66.428
0.042,-0.939,0.048,-56.286,-187.950,-64.602
0.045,-0.940,0.060,-54.985,-183.144,-62.908
0.047,-0.938,0.073,-53.690,-178.542,-61.375
0.047,-0.936,0.085,-52.527,-174.159,-59.897
0.047,-0.935,0.097,-51.405,-169.961,-58.479
0.047,-0.936,0.108,-50.253,-166.016,-57.044
0.044,-0.937,0.119,-49.139,-162.102,-55.650
0.043,-0.941,0.128,-47.949,-156.922,-54.125
0.039,-0.946,0.138,-46.575,-151.339,-52.562
0.037,-0.951,0.146,-44.702,-144.878,-50.937
0.036,-0.956,0.153,-42.227,-137.073,-49.307
0.037,-0.962,0.159,-38.981,-127.466,-47.656
0.037,-0.968,0.163,-35.127,-117.924,-45.931
0.036,-0.972,0.167,-31.189,-108.075,-44.077
0.036,-0.976,0.170,-27.334,-98.998,-42.176
0.035,-0.979,0.174,-23.862,-91.384,-40.309
0.033,-0.982,0.178,-20.722,-85.132,-38.481
0.032,-0.985,0.183,-18.035,-80.184,-36.649
0.030,-0.988,0.189,-15.804,-75.836,-34.870
0.028,-0.989,0.195,-14.042,-71.639,-33.215
0.027,-0.991,0.201,-12.558,-67.418,-31.728
0.026,-0.991,0.206,-11.340,-62.924,-30.515
0.026,-0.991,0.211,-10.435,-58.104,-29.460
0.025,-0.991,0.216,-9.817,-53.115,-28.590
0.023,-0.990,0.219,-9.470,-48.158,-27.881
0.022,-0.990,0.222,-9.234,-43.329,-27.298
0.021,-0.991,0.224,-8.951,-38.506,-26.757
0.020,-0.992,0.225,-8.485,-33.569,-26.164
0.021,-0.995,0.225,-7.560,-28.515,-25.380
0.020,-0.998,0.226,-6.170,-23.532,-24.461
0.020,-1.001,0.227,-4.334,-18.930,-23.405
0.019,-1.003,0.228,-2.262,-14.562,-22.129
0.017,-1.004,0.230,-0.168,-10.740,-20.689
0.014,-1.003,0.231,1.777,-7.522,-18.755
0.012,-1.003,0.233,3.337,-4.619,-16.578
0.008,-1.002,0.234,4.593,-2.940,-14.874
0.005,-0.998,0.236,5.393,-0.599,-13.390
0.004,-0.995,0.237,5.921,2.085,-12.111
0.002,-0.992,0.237,6.266,4.856,-11.189
0.000,-0.990,0.237,6.537,7.792,-10.380
-0.002,-0.988,0.235,6.813,10.735,-9.624
-0.005,-0.986,0.233,7.107,13.115,-8.895
-0.009,-0.986,0.231,7.437,14.928,-8.256
-0.013,-0.984,0.229,7.815,16.523,-7.777
-0.017,-0.983,0.228,8.238,18.159,-7.534
-0.022,-0.982,0.227,8.645,19.957,-7.452
-0.027,-0.981,0.226,8.985,21.885,-7.480
-0.033,-0.980,0.225,9.263,23.962,-7.547
-0.039,-0.977,0.224,9.493,26.008,-7.595
-0.046,-0.975,0.223,9.681,28.002,-7.526
-0.052,-0.972,0.221,9.815,29.963,-7.371
-0.058,-0.969,0.219,9.920,31.999,-7.118
-0.063,-0.966,0.217,9.978,34.256,-6.807
-0.068,-0.962,0.215,10.039,36.498,-6.466
-0.073,-0.957,0.212,10.085,38.836,-6.110
-0.080,-0.954,0.210,10.081,41.451,-5.775
-0.087,-0.951,0.208,10.073,44.385,-5.458
-0.096,-0.949,0.205,10.029,47.637,-5.179
-0.104,-0.947,0.202,9.949,51.067,-4.945
-0.112,-0.945,0.198,9.885,54.412,-4.753
-0.118,-0.944,0.195,9.886,57.635,-5.206
-0.124,-0.942,0.191,10.033,60.763,-5.061
-0.128,-0.941,0.187,10.297,63.816,-4.919
-0.133,-0.940,0.185,10.680,66.745,-4.805
-0.138,-0.938,0.183,11.145,69.642,-4.744
-0.144,-0.936,0.180,11.616,72.610,-4.753
-0.152,-0.934,0.178,11.998,75.658,-4.915
-0.162,-0.932,0.176,12.248,78.714,-5.209
-0.172,-0.930,0.173,12.328,81.726,-5.618
-0.181,-0.928,0.169,12.221,84.584,-6.070
-0.190,-0.926,0.164,11.960,87.172,-6.541
-0.198,-0.925,0.158,11.583,89.320,-7.007
-0.205,-0.924,0.153,11.119,91.099,-7.434
-0.212,-0.923,0.147,10.614,92.566,-7.799
-0.218,-0.923,0.141,10.095,93.744,-8.118
-0.224,-0.922,0.137,9.555,94.758,-8.396
-0.232,-0.922,0.132,8.950,95.674,-8.641
-0.241,-0.922,0.128,8.235,96.500,-8.863
-0.250,-0.922,0.123,7.417,97.242,-9.060
-0.259,-0.923,0.118,6.483,97.892,-9.219
-0.266,-0.923,0.112,5.499,98.424,-9.345
-0.273,-0.924,0.106,4.524,98.852,-9.439
-0.278,-0.925,0.098,3.639,99.184,-9.509
-0.283,-0.927,0.091,2.932,99.417,-9.541
-0.287,-0.928,0.082,2.402,99.525,-9.559
-0.292,-0.930,0.074,2.056,99.435,-9.580
-0.297,-0.932,0.066,1.886,99.177,-9.613
-0.302,-0.935,0.059,1.833,98.759,-9.651
-0.307,-0.937,0.053,1.854,98.213,-9.688
-0.312,-0.938,0.048,1.902,97.554,-9.706
-0.317,-0.939,0.044,1.968,96.774,-9.702
-0.321,-0.940,0.040,2.020,95.871,-9.662
-0.325,-0.941,0.036,2.061,94.936,-9.559
-0.328,-0.942,0.032,2.062,94.017,-9.386
-0.330,-0.941,0.028,1.993,93.161,-9.126
-0.332,-0.941,0.023,1.905,92.370,-8.830
-0.335,-0.941,0.018,1.791,91.643,-8.532
-0.338,-0.941,0.012,1.674,90.916,-8.244
-0.342,-0.941,0.006,1.546,90.167,-7.979
-0.346,-0.941,-0.001,1.412,89.381,-7.761
-0.350,-0.942,-0.006,1.283,88.563,-7.597
-0.353,-0.942,-0.011,1.146,87.691,-7.472
-0.356,-0.943,-0.016,0.999,86.700,-7.351
-0.359,-0.944,-0.019,0.872,85.678,-7.227
-0.362,-0.945,-0.023,0.781,84.664,-7.089
-0.364,-0.945,-0.025,0.682,83.617,-6.914
-0.365,-0.945,-0.028,0.563,82.558,-6.694
-0.368,-0.945,-0.031,0.414,81.572,-6.423
-0.371,-0.945,-0.035,0.248,80.693,-6.123
-0.374,-0.944,-0.039,0.052,79.914,-5.804
-0.378,-0.943,-0.044,-0.168,79.177,-5.485
-0.382,-0.942,-0.050,-0.402,78.345,-5.181
-0.385,-0.942,-0.056,-0.622,77.397,-4.896
-0.388,-0.942,-0.062,-0.784,76.323,-4.634
-0.391,-0.943,-0.068,-0.868,75.160,-4.374
-0.393,-0.944,-0.073,-0.869,73.895,-4.109
-0.394,-0.944,-0.078,-0.781,72.593,-3.828
-0.396,-0.945,-0.082,-0.587,71.291,-3.524
-0.398,-0.945,-0.085,-0.340,69.985,-3.191
-0.400,-0.944,-0.088,-0.067,68.641,-2.835
-0.402,-0.943,-0.090,0.210,67.266,-2.458
-0.404,-0.942,-0.092,0.437,65.857,-2.054
-0.406,-0.940,-0.094,0.594,64.425,-1.632
-0.407,-0.938,-0.095,0.660,62.986,-1.203
-0.408,-0.935,-0.097,0.652,61.531,-0.786
-0.409,-0.933,-0.099,0.587,60.089,-0.391
-0.409,-0.932,-0.101,0.487,58.682,-0.023
-0.410,-0.930,-0.104,0.406,57.327,0.298
-0.411,-0.930,-0.107,0.374,56.025,0.573
-0.413,-0.929,-0.110,0.402,54.799,0.795
-0.414,-0.929,-0.114,0.500,53.625,0.966
-0.416,-0.929,-0.116,0.721,52.495,1.079
-0.418,-0.929,-0.119,1.034,51.409,1.169
-0.419,-0.929,-0.121,1.402,50.335,1.250
-0.421,-0.928,-0.121,1.800,49.247,1.346
-0.422,-0.927,-0.122,2.177,48.140,1.460
-0.424,-0.926,-0.122,2.500,47.014,1.606
-0.425,-0.925,-0.121,2.661,45.864,1.805
-0.426,-0.924,-0.121,2.716,44.685,2.030
-0.428,-0.922,-0.121,2.664,43.477,2.263
-0.429,-0.922,-0.121,2.526,42.247,2.500
-0.429,-0.921,-0.121,2.342,41.005,2.728

-0.687,-0.711,-0.468,2.208,42.857,4.850
-0.691,-0.706,-0.479,2.279,44.359,6.900
-0.695,-0.702,-0.493,2.624,45.639,8.906
-0.699,-0.698,-0.508,3.231,46.898,10.952
-0.702,-0.693,-0.523,4.080,48.166,13.103
-0.707,-0.686,-0.537,5.001,49.259,15.394
-0.712,-0.677,-0.550,5.698,50.340,17.727
-0.715,-0.668,-0.558,6.039,52.329,20.296
-0.716,-0.659,-0.568,6.217,54.589,22.891
-0.718,-0.651,-0.578,6.211,56.796,25.177
-0.718,-0.643,-0.588,6.113,59.093,27.149
-0.718,-0.640,-0.600,6.085,61.119,28.593
-0.718,-0.637,-0.613,5.988,62.652,29.705
-0.717,-0.635,-0.627,5.628,63.685,30.511
-0.715,-0.633,-0.644,4.813,64.134,30.931
-0.712,-0.632,-0.662,3.486,64.064,30.967
-0.709,-0.633,-0.680,1.595,63.354,30.583
-0.703,-0.636,-0.698,-1.267,62.069,29.842
-0.699,-0.640,-0.715,-4.589,60.387,28.626
-0.692,-0.645,-0.729,-8.317,57.450,27.088
-0.685,-0.649,-0.741,-12.284,52.650,25.126
-0.679,-0.653,-0.751,-16.242,45.648,22.364
-0.673,-0.656,-0.760,-19.899,36.412,19.074
-0.666,-0.660,-0.769,-23.286,24.758,15.467
-0.659,-0.664,-0.776,-26.540,12.210,11.592
-0.653,-0.668,-0.782,-29.728,-1.030,6.975
-0.646,-0.671,-0.784,-32.984,-15.006,1.721
-0.639,-0.674,-0.785,-36.309,-29.454,-4.232
-0.630,-0.678,-0.784,-39.789,-44.524,-10.927
-0.621,-0.682,-0.783,-43.506,-59.271,-18.788
-0.611,-0.686,-0.782,-47.664,-73.360,-27.391
-0.599,-0.691,-0.779,-51.976,-86.961,-36.748
-0.586,-0.695,-0.773,-56.388,-100.153,-46.757
-0.572,-0.700,-0.766,-61.305,-113.686,-58.173
-0.557,-0.706,-0.754,-66.586,-128.326,-70.335
-0.538,-0.711,-0.737,-72.622,-143.051,-82.759
-0.516,-0.712,-0.719,-79.460,-154.940,-98.858
-0.492,-0.707,-0.703,-86.559,-164.221,-112.195
-0.474,-0.715,-0.690,-93.163,-176.052,-127.137
-0.452,-0.718,-0.674,-97.777,-186.093,-142.606
-0.430,-0.719,-0.657,-101.228,-194.745,-156.656
-0.408,-0.718,-0.641,-103.977,-203.095,-170.171
-0.388,-0.715,-0.622,-106.086,-215.185,-183.255
-0.364,-0.714,-0.608,-108.276,-227.462,-194.654
-0.332,-0.716,-0.601,-109.784,-237.940,-205.956
-0.296,-0.725,-0.599,-109.334,-246.810,-216.681
-0.257,-0.741,-0.595,-107.054,-253.755,-225.317
-0.214,-0.762,-0.592,-101.242,-256.556,-230.758
-0.168,-0.784,-0.589,-87.205,-254.466,-234.014
-0.120,-0.809,-0.588,-63.182,-248.388,-233.257
-0.076,-0.839,-0.589,-27.079,-241.426,-228.117
-0.036,-0.866,-0.583,9.764,-234.401,-221.877
-0.004,-0.878,-0.568,42.783,-227.699,-215.257
0.017,-0.877,-0.540,68.277,-221.763,-208.461
0.029,-0.865,-0.501,85.576,-216.997,-201.686
0.034,-0.847,-0.456,93.952,-212.766,-195.273
0.040,-0.828,-0.406,96.475,-207.994,-189.377
0.048,-0.809,-0.355,95.436,-202.241,-184.016
0.054,-0.797,-0.313,93.017,-196.862,-178.344
0.052,-0.802,-0.277,90.365,-191.896,-172.963
0.055,-0.811,-0.243,87.960,-186.777,-167.760
0.063,-0.815,-0.211,85.285,-182.005,-162.763
0.070,-0.820,-0.184,81.724,-177.457,-157.997
0.070,-0.827,-0.163,76.997,-172.975,-153.391
0.067,-0.835,-0.144,70.883,-170.117,-148.882
0.065,-0.839,-0.126,64.102,-168.698,-144.578
0.067,-0.842,-0.109,56.951,-167.037,-140.649
0.073,-0.843,-0.094,50.233,-163.894,-137.002
0.077,-0.848,-0.083,44.331,-160.252,-133.353
0.077,-0.858,-0.073,40.771,-156.326,-129.600
0.078,-0.871,-0.064,39.250,-152.683,-125.943
0.078,-0.884,-0.056,38.730,-146.821,-122.475
0.077,-0.897,-0.048,39.435,-139.934,-119.088
0.076,-0.908,-0.041,41.326,-133.116,-115.219
0.074,-0.915,-0.033,44.141,-127.185,-111.195
0.071,-0.921,-0.024,47.311,-121.429,-107.162
0.070,-0.926,-0.016,50.088,-116.261,-103.253
0.069,-0.929,-0.008,52.220,-112.739,-100.163
0.069,-0.929,0.002,52.455,-109.433,-97.426
0.071,-0.928,0.012,52.698,-105.482,-94.777
0.074,-0.929,0.021,52.527,-100.980,-92.233
0.075,-0.930,0.030,52.105,-95.657,-89.783
0.076,-0.932,0.039,51.503,-89.973,-87.414
0.075,-0.935,0.047,50.709,-84.086,-85.108
0.074,-0.938,0.055,49.676,-78.227,-82.898
0.073,-0.940,0.062,48.489,-72.713,-80.799
0.070,-0.941,0.067,47.122,-68.129,-78.812
0.067,-0.943,0.072,45.278,-65.026,-76.887
0.062,-0.946,0.077,42.967,-62.987,-74.988
0.058,-0.949,0.080,40.365,-61.691,-73.082
0.055,-0.952,0.083,37.739,-60.658,-71.127
0.052,-0.958,0.085,35.511,-59.762,-68.982
0.049,-0.965,0.087,33.909,-58.905,-66.170
0.047,-0.972,0.088,32.917,-58.026,-62.812
0.045,-0.977,0.090,32.179,-57.093,-59.097
0.043,-0.980,0.092,31.577,-56.129,-55.587
0.041,-0.979,0.095,30.989,-55.126,-52.701
0.039,-0.978,0.097,30.329,-54.024,-50.517
0.038,-0.976,0.100,29.576,-52.705,-48.872
0.036,-0.975,0.103,28.672,-51.235,-47.519
0.033,-0.974,0.105,27.564,-49.915,-46.276
0.029,-0.974,0.108,26.173,-48.772,-45.182
0.027,-0.974,0.110,24.614,-47.753,-44.172
0.025,-0.974,0.111,22.949,-46.910,-43.230
0.022,-0.975,0.111,21.213,-46.211,-42.316
0.020,-0.977,0.111,19.495,-45.598,-41.387
0.018,-0.979,0.111,17.898,-45.008,-40.422
0.017,-0.981,0.111,16.628,-44.409,-39.404
0.015,-0.983,0.111,15.666,-43.683,-38.357
0.014,-0.985,0.111,14.992,-42.655,-37.279
0.013,-0.987,0.111,14.558,-41.250,-36.085
0.011,-0.989,0.112,14.302,-39.468,-34.630
0.009,-0.990,0.112,14.237,-37.509,-32.744
0.006,-0.991,0.113,14.427,-35.438,-30.635
0.003,-0.992,0.113,14.748,-33.281,-28.508
0.001,-0.991,0.114,15.085,-31.074,-26.598
-0.002,-0.990,0.115,15.285,-29.058,-24.984
-0.004,-0.989,0.115,15.324,-27.062,-23.721
-0.006,-0.988,0.115,15.170,-25.190,-22.807
-0.008,-0.988,0.115,14.945,-23.407,-22.080
-0.010,-0.988,0.115,14.701,-21.751,-21.428
-0.012,-0.988,0.115,14.454,-20.219,-20.834
-0.015,-0.988,0.115,14.194,-18.818,-20.305
-0.017,-0.988,0.116,13.860,-17.550,-19.853
-0.019,-0.987,0.116,13.485,-16.426,-19.449
-0.022,-0.986,0.116,13.038,-15.472,-19.053
-0.024,-0.986,0.116,12.540,-14.697,-18.618
-0.027,-0.986,0.116,12.064,-14.094,-18.108
-0.030,-0.987,0.117,11.679,-13.510,-17.557
-0.032,-0.987,0.118,11.368,-12.873,-16.976
-0.034,-0.987,0.119,11.146,-12.154,-16.220
-0.036,-0.988,0.120,11.047,-11.422,-15.279
-0.039,-0.989,0.120,11.060,-10.802,-14.180
-0.042,-0.989,0.120,11.091,-10.310,-13.023
-0.045,-0.989,0.120,11.092,-9.925,-11.878
-0.048,-0.988,0.120,11.041,-9.681,-10.796
-0.051,-0.987,0.121,10.943,-9.505,-9.811
-0.054,-0.986,0.121,10.764,-9.352,-9.046
-0.056,-0.985,0.122,10.483,-9.248,-8.459
-0.059,-0.983,0.123,10.060,-9.195,-8.051
-0.061,-0.981,0.124,9.506,-9.123,-7.795
-0.063,-0.980,0.125,8.841,-8.994,-7.694
-0.064,-0.978,0.126,8.052,-8.858,-7.726
-0.066,-0.978,0.126,7.178,-8.796,-7.819
-0.069,-0.977,0.126,6.256,-8.858,-7.898
-0.071,-0.978,0.125,5.320,-9.009,-7.939
-0.073,-0.978,0.123,4.504,-9.145,-7.936
-0.074,-0.980,0.122,3.925,-9.216,-7.847
-0.075,-0.981,0.121,3.528,-9.258,-7.692
-0.076,-0.982,0.121,3.285,-9.164,-7.464
-0.077,-0.983,0.120,3.170,-9.012,-7.179
-0.078,-0.983,0.121,3.149,-8.725,-6.822
-0.079,-0.983,0.121,3.233,-8.370,-6.393
-0.081,-0.983,0.121,3.375,-7.879,-5.930
-0.081,-0.983,0.121,3.531,-7.360,-5.461
-0.083,-0.983,0.122,3.655,-6.874,-5.033
-0.084,-0.983,0.122,3.742,-6.383,-4.647
-0.085,-0.983,0.122,3.780,-5.926,-4.316
-0.086,-0.983,0.122,3.774,-5.532,-4.040
-0.087,-0.983,0.122,3.743,-5.200,-3.809
-0.088,-0.983,0.121,3.696,-4.907,-3.637
-0.089,-0.983,0.121,3.635,-4.622,-4.081
-0.090,-0.983,0.121,3.570,-4.317,-4.015
-0.091,-0.983,0.121,3.493,-4.050,-3.975
-0.092,-0.983,0.122,3.386,-3.782,-3.934
-0.094,-0.982,0.122,3.255,-3.569,-3.916
-0.094,-0.982,0.123,3.090,-3.297,-3.879
-0.095,-0.982,0.124,2.938,-2.983,-3.830
-0.096,-0.982,0.124,2.794,-2.647,-3.755
-0.097,-0.982,0.125,2.681,-2.234,-3.649
-0.097,-0.983,0.125,2.608,-1.771,-3.513
-0.098,-0.983,0.125,2.591,-1.268,-3.342
-0.098,-0.984,0.125,2.621,-0.731,-3.149
-0.099,-0.985,0.124,2.713,-0.188,-2.939
-0.100,-0.985,0.124,2.852,0.296,-2.718
-0.101,-0.986,0.124,3.018,0.691,-2.479
-0.102,-0.986,0.124,3.179,0.996,-2.232
-0.103,-0.986,0.124,3.297,1.223,-1.996
-0.104,-0.986,0.125,3.360,1.359,-1.785
-0.104,-0.986,0.126,3.360,1.421,-1.611
-0.105,-0.986,0.126,3.273,1.444,-1.478
-0.106,-0.985,0.126,3.075,1.407,-1.412
-0.107,-0.985,0.127,2.764,1.346,-1.419
-0.108,-0.985,0.127,2.340,1.277,-1.511
-0.109,-0.985,0.127,1.914,1.292,-1.618
-0.109,-0.985,0.126,1.505,1.259,-1.754
-0.110,-0.986,0.126,1.087,1.201,-1.904
-0.111,-0.986,0.125,0.712,1.218,-2.051
-0.111,-0.987,0.125,0.370,1.221,-2.172
-0.112,-0.987,0.124,0.102,1.218,-2.250
-0.112,-0.988,0.124,-0.103,1.217,-2.278
-0.113,-0.989,0.123,-0.243,1.204,-2.263
-0.113,-0.989,0.122,-0.332,1.203,-2.196
-0.114,-0.990,0.122,-0.360,1.263,-2.093
-0.114,-0.991,0.122,-0.363,1.291,-1.951
-0.115,-0.991,0.121,-0.330,1.322,-1.776
-0.116,-0.991,0.121,-0.286,1.410,-1.563
-0.117,-0.992,0.120,-0.253,1.435,-1.363
-0.117,-0.991,0.120,-0.250,1.479,-1.155

-0.860,-0.513,-0.491,1.330,14.214,-1.164
-0.863,-0.509,-0.502,2.615,25.570,-1.526
-0.866,-0.504,-0.516,3.405,35.500,-1.708
-0.869,-0.497,-0.530,3.653,43.073,-1.772
-0.873,-0.490,-0.544,3.380,48.466,-1.791
-0.876,-0.482,-0.557,2.559,51.706,-1.808
-0.878,-0.476,-0.571,1.406,53.338,-1.938
-0.877,-0.474,-0.583,0.130,54.718,-2.060
-0.864,-0.475,-0.589,-0.994,58.852,-2.044
-0.854,-0.477,-0.597,-1.690,62.489,-2.023
-0.846,-0.479,-0.605,-2.017,64.698,-2.197
-0.839,-0.482,-0.613,-2.287,65.661,-2.432
-0.832,-0.487,-0.621,-2.536,65.476,-2.823
-0.824,-0.492,-0.630,-2.893,64.502,-3.320
-0.820,-0.498,-0.644,-3.501,63.253,-4.222
-0.809,-0.503,-0.658,-4.606,61.740,-5.416
-0.799,-0.509,-0.675,-6.189,60.101,-7.025
-0.788,-0.513,-0.688,-8.005,58.229,-8.964
-0.777,-0.516,-0.703,-10.092,55.555,-11.072
-0.767,-0.520,-0.719,-12.415,52.247,-13.501
-0.758,-0.522,-0.732,-14.838,48.130,-16.141
-0.748,-0.524,-0.744,-17.361,42.677,-18.880
-0.739,-0.527,-0.755,-20.190,36.274,-21.685
-0.729,-0.530,-0.765,-23.619,29.079,-24.669
-0.720,-0.535,-0.776,-27.433,21.232,-27.836
-0.709,-0.543,-0.786,-31.655,12.561,-31.264
-0.697,-0.552,-0.796,-36.361,3.432,-35.004
-0.685,-0.564,-0.804,-42.010,-6.196,-39.269
-0.671,-0.578,-0.812,-48.298,-16.392,-43.758
-0.656,-0.592,-0.819,-54.802,-27.622,-48.445
-0.641,-0.607,-0.826,-61.231,-39.523,-53.172
-0.626,-0.622,-0.834,-67.318,-52.282,-57.707
-0.610,-0.636,-0.841,-72.929,-66.915,-62.039
-0.594,-0.650,-0.848,-77.873,-82.889,-66.171
-0.577,-0.664,-0.855,-81.797,-100.337,-70.029
-0.561,-0.676,-0.860,-84.758,-119.437,-73.597
-0.543,-0.688,-0.859,-86.898,-141.750,-76.869
-0.526,-0.700,-0.852,-87.210,-165.514,-79.833
-0.510,-0.713,-0.841,-87.957,-189.424,-82.206
-0.493,-0.726,-0.824,-88.524,-214.383,-84.251
-0.479,-0.737,-0.805,-89.277,-239.091,-86.210
-0.465,-0.750,-0.789,-90.410,-261.385,-88.255
-0.448,-0.764,-0.776,-91.964,-279.466,-90.192
-0.430,-0.780,-0.764,-93.542,-292.429,-92.033
-0.410,-0.796,-0.751,-94.743,-301.868,-93.997
-0.389,-0.812,-0.734,-95.139,-308.444,-96.199
-0.367,-0.825,-0.712,-94.620,-309.529,-99.359
-0.343,-0.835,-0.686,-93.454,-307.585,-104.152
-0.318,-0.840,-0.664,-91.837,-304.997,-107.253
-0.300,-0.858,-0.645,-90.103,-303.490,-107.913
-0.288,-0.873,-0.632,-88.022,-305.337,-110.060
-0.271,-0.883,-0.610,-86.152,-305.315,-111.908
-0.249,-0.894,-0.589,-84.084,-303.312,-111.363
-0.231,-0.913,-0.569,-81.635,-307.306,-108.832
-0.222,-0.934,-0.545,-77.462,-316.195,-106.073
-0.210,-0.945,-0.516,-71.715,-323.657,-103.333
-0.193,-0.952,-0.484,-66.352,-328.152,-100.028
-0.174,-0.957,-0.452,-61.998,-328.606,-96.854
-0.153,-0.959,-0.419,-58.901,-325.688,-94.378
-0.132,-0.953,-0.386,-57.217,-319.569,-92.411
-0.111,-0.947,-0.356,-55.969,-310.670,-90.949
-0.094,-0.944,-0.324,-54.896,-301.019,-90.022
-0.079,-0.946,-0.290,-53.965,-291.309,-90.689
-0.065,-0.946,-0.256,-53.347,-281.916,-93.245
-0.052,-0.945,-0.225,-53.590,-273.076,-96.633
-0.041,-0.946,-0.196,-54.704,-264.837,-98.782
-0.031,-0.955,-0.171,-55.792,-257.902,-98.162
-0.028,-0.969,-0.146,-55.654,-252.756,-96.579
-0.020,-0.979,-0.120,-54.588,-246.051,-94.523
-0.009,-0.981,-0.093,-52.570,-239.005,-92.146
-0.003,-0.980,-0.071,-50.451,-232.660,-89.822
-0.005,-0.975,-0.053,-49.297,-226.146,-87.673
-0.009,-0.966,-0.035,-48.989,-220.735,-86.116
-0.008,-0.955,-0.019,-50.352,-216.738,-85.207
-0.006,-0.948,-0.004,-52.413,-213.507,-84.726
-0.003,-0.946,0.009,-54.129,-211.930,-83.934
-0.004,-0.949,0.023,-54.384,-208.696,-82.237
0.001,-0.959,0.036,-53.394,-203.225,-80.220
0.008,-0.971,0.047,-49.661,-193.818,-78.008
0.013,-0.982,0.056,-42.288,-178.416,-75.265
0.015,-0.986,0.064,-33.261,-164.452,-72.763
0.017,-0.985,0.075,-24.834,-151.849,-70.214
0.017,-0.981,0.085,-18.075,-141.582,-68.075
0.016,-0.974,0.097,-12.709,-132.505,-66.414
0.016,-0.964,0.110,-9.095,-124.051,-65.025
0.016,-0.954,0.121,-7.266,-117.585,-63.850
0.013,-0.946,0.131,-6.505,-112.580,-62.720
0.011,-0.946,0.140,-5.961,-107.755,-61.561
0.011,-0.947,0.150,-5.058,-100.959,-60.437
0.013,-0.949,0.160,-3.833,-92.308,-59.451
0.015,-0.948,0.169,-2.704,-82.680,-58.617
0.016,-0.947,0.177,-2.188,-73.651,-57.865
0.015,-0.947,0.183,-2.200,-67.531,-57.024
0.010,-0.948,0.185,-2.793,-66.259,-55.958
0.001,-0.950,0.186,-3.965,-66.799,-54.684
-0.005,-0.953,0.191,-5.384,-68.828,-53.119
-0.008,-0.955,0.196,-6.489,-71.370,-51.049
-0.009,-0.958,0.203,-7.038,-72.582,-48.683
-0.006,-0.960,0.211,-7.048,-71.560,-46.521
-0.002,-0.959,0.217,-6.798,-69.423,-44.802
-0.000,-0.956,0.222,-6.728,-66.782,-43.734
-0.001,-0.952,0.226,-7.045,-64.261,-43.002
-0.003,-0.948,0.228,-7.947,-62.438,-42.567
-0.007,-0.946,0.229,-9.356,-61.286,-42.066
-0.011,-0.949,0.229,-10.718,-60.455,-41.288
-0.015,-0.953,0.227,-11.696,-59.851,-40.395
-0.018,-0.957,0.226,-12.350,-59.343,-39.476
-0.019,-0.959,0.224,-12.711,-58.680,-38.596
-0.019,-0.961,0.223,-12.702,-57.819,-37.730
-0.019,-0.964,0.223,-12.362,-56.462,-36.834
-0.020,-0.967,0.224,-11.526,-53.941,-35.801
-0.023,-0.969,0.226,-10.032,-50.375,-34.415
-0.025,-0.971,0.228,-7.664,-46.174,-32.451
-0.029,-0.972,0.230,-5.014,-42.170,-30.297
-0.034,-0.972,0.231,-2.488,-38.900,-28.129
-0.038,-0.971,0.232,-0.431,-36.221,-26.149
-0.041,-0.969,0.233,0.906,-33.943,-24.797
-0.043,-0.967,0.234,1.717,-31.856,-23.893
-0.045,-0.965,0.235,2.165,-29.935,-23.292
-0.047,-0.966,0.235,2.422,-27.968,-22.799
-0.049,-0.967,0.235,2.668,-25.858,-22.366
-0.051,-0.969,0.235,2.997,-23.657,-21.957
-0.054,-0.970,0.235,3.398,-21.309,-21.525
-0.056,-0.971,0.236,3.863,-18.802,-21.090
-0.059,-0.971,0.237,4.325,-16.239,-20.658
-0.062,-0.971,0.238,4.670,-13.740,-20.295
-0.065,-0.969,0.239,4.773,-11.635,-20.031
-0.069,-0.967,0.240,4.719,-9.998,-19.701
-0.073,-0.966,0.241,4.601,-8.779,-19.289
-0.077,-0.966,0.242,4.498,-8.033,-18.708
-0.081,-0.967,0.243,4.443,-7.489,-17.868
-0.085,-0.967,0.243,4.436,-7.213,-16.804
-0.088,-0.967,0.243,4.432,-7.041,-15.603
-0.091,-0.967,0.242,4.411,-6.921,-14.285
-0.093,-0.967,0.241,4.376,-6.950,-12.916
-0.097,-0.966,0.240,4.308,-7.104,-11.710
-0.100,-0.965,0.240,4.111,-7.361,-10.900
-0.102,-0.962,0.240,3.771,-7.655,-10.340
-0.104,-0.961,0.241,3.332,-7.917,-9.959
-0.106,-0.960,0.242,2.876,-8.118,-9.746
-0.109,-0.958,0.244,2.431,-8.287,-9.641
-0.112,-0.956,0.246,1.942,-8.484,-9.571
-0.115,-0.955,0.248,1.431,-8.742,-9.506
-0.118,-0.953,0.249,0.964,-9.013,-9.448
-0.120,-0.953,0.250,0.554,-9.244,-9.391
-0.121,-0.952,0.251,0.170,-9.444,-9.297
-0.123,-0.953,0.251,-0.134,-9.581,-9.133
-0.125,-0.954,0.249,-0.342,-9.634,-8.917
-0.127,-0.955,0.248,-0.426,-9.600,-8.628
-0.129,-0.956,0.247,-0.402,-9.454,-8.284
-0.132,-0.956,0.247,-0.216,-9.193,-7.875
-0.135,-0.956,0.247,0.047,-8.830,-7.413
-0.138,-0.955,0.247,0.370,-8.366,-6.897
-0.141,-0.955,0.248,0.714,-7.870,-6.370
-0.144,-0.954,0.248,1.048,-7.383,-5.843
-0.147,-0.952,0.249,1.332,-6.882,-5.373
-0.150,-0.951,0.250,1.555,-6.378,-4.947
-0.152,-0.950,0.250,1.732,-5.874,-4.598
-0.155,-0.949,0.250,1.850,-5.402,-4.332
-0.157,-0.949,0.250,1.912,-4.955,-4.132
-0.159,-0.949,0.250,1.908,-4.571,-4.035
-0.161,-0.948,0.249,1.853,-4.289,-4.003
-0.162,-0.948,0.250,1.739,-4.058,-4.019
-0.164,-0.948,0.250,1.608,-3.848,-4.060
-0.165,-0.948,0.250,1.493,-3.617,-4.111
-0.166,-0.948,0.250,1.413,-3.339,-4.155
-0.167,-0.949,0.251,1.405,-2.974,-4.179
-0.167,-0.949,0.251,1.442,-2.526,-4.159
-0.168,-0.949,0.252,1.521,-2.015,-4.106
-0.169,-0.949,0.252,1.654,-1.501,-4.040
-0.171,-0.948,0.253,1.783,-1.099,-3.974
-0.172,-0.948,0.254,1.902,-0.757,-3.858
-0.173,-0.947,0.255,2.043,-0.385,-3.703
-0.173,-0.947,0.256,2.174,-0.097,-3.480
-0.175,-0.948,0.257,2.242,-0.008,-3.202
-0.176,-0.949,0.257,2.262,-0.079,-2.864
-0.177,-0.950,0.257,2.284,-0.214,-2.490
-0.178,-0.951,0.257,2.308,-0.367,-2.147
-0.179,-0.951,0.258,2.316,-0.532,-1.894
-0.180,-0.951,0.258,2.286,-0.705,-1.733
-0.180,-0.951,0.259,2.221,-0.870,-1.655
-0.181,-0.951,0.259,2.110,-1.013,-1.655
-0.182,-0.950,0.260,1.952,-1.140,-1.702
-0.183,-0.950,0.261,1.743,-1.320,-1.790
-0.184,-0.949,0.262,1.481,-1.539,-1.916
-0.185,-0.949,0.263,1.139,-1.754,-2.097
-0.185,-0.948,0.264,0.778,-1.939,-2.298
-0.186,-0.949,0.264,0.423,-2.113,-2.519
-0.186,-0.949,0.265,0.071,-2.299,-2.721
-0.187,-0.950,0.265,-0.244,-2.462,-2.887
-0.187,-0.952,0.264,-0.483,-2.602,-2.986
-0.187,-0.953,0.264,-0.643,-2.677,-3.026
-0.187,-0.954,0.264,-0.713,-2.678,-3.004
-0.187,-0.955,0.264,-0.698,-2.620,-2.932
-0.187,-0.956,0.264,-0.649,-2.556,-2.799
-0.188,-0.956,0.264,-0.601,-2.485,-2.648
-0.189,-0.956,0.264,-0.562,-2.387,-2.482
-0.189,-0.957,0.264,-0.524,-2.261,-2.334
-0.189,-0.957,0.264,-0.508,-2.154,-2.177

-0.786,-0.421,-0.673,1.884,20.111,-6.675
-0.792,-0.422,-0.694,3.807,38.212,-11.027
-0.796,-0.423,-0.714,5.420,52.518,-15.309
-0.803,-0.421,-0.728,6.613,63.822,-19.522
-0.811,-0.417,-0.740,7.222,73.310,-23.417
-0.819,-0.414,-0.749,7.145,81.257,-27.010
-0.827,-0.412,-0.753,6.639,87.443,-30.322
-0.834,-0.411,-0.753,5.397,91.531,-33.198
-0.840,-0.411,-0.754,3.211,94.214,-35.753
-0.845,-0.412,-0.756,0.442,95.713,-38.297
-0.843,-0.412,-0.754,-2.587,96.911,-40.606
-0.826,-0.414,-0.750,-5.843,104.116,-42.464
-0.809,-0.418,-0.752,-8.583,111.149,-44.716
-0.805,-0.425,-0.761,-10.614,115.188,-47.878
-0.797,-0.435,-0.774,-11.202,116.451,-51.503
-0.786,-0.448,-0.786,-11.098,115.483,-55.319
-0.772,-0.459,-0.805,-10.814,112.630,-59.262
-0.758,-0.469,-0.822,-10.840,109.198,-63.531
-0.744,-0.480,-0.842,-11.913,105.866,-68.059
-0.729,-0.490,-0.865,-14.008,101.017,-72.646
-0.713,-0.500,-0.890,-17.170,92.058,-77.386
-0.695,-0.508,-0.916,-21.207,81.599,-82.471
-0.676,-0.516,-0.944,-25.198,69.074,-87.893
-0.654,-0.529,-0.970,-28.562,54.655,-93.339
-0.630,-0.543,-0.994,-31.308,38.388,-98.542
-0.605,-0.557,-1.015,-33.352,19.133,-103.443
-0.579,-0.572,-1.034,-34.675,-1.681,-107.818
-0.553,-0.588,-1.050,-35.070,-23.893,-111.158
-0.526,-0.603,-1.063,-34.869,-47.136,-113.491
-0.501,-0.620,-1.071,-34.216,-71.482,-114.731
-0.477,-0.636,-1.077,-32.996,-95.576,-114.860
-0.453,-0.652,-1.079,-30.942,-119.386,-114.395
-0.430,-0.667,-1.076,-28.588,-144.067,-113.415
-0.406,-0.681,-1.069,-26.353,-168.770,-112.133
-0.383,-0.695,-1.058,-24.776,-193.757,-110.943
-0.361,-0.709,-1.044,-23.993,-218.349,-109.933
-0.336,-0.724,-1.025,-23.792,-243.089,-108.939
-0.311,-0.741,-1.007,-23.973,-265.455,-107.978
-0.285,-0.760,-0.992,-24.217,-284.588,-107.067
-0.258,-0.779,-0.973,-24.074,-291.294,-107.558
-0.216,-0.795,-0.953,-23.670,-289.117,-110.309
-0.179,-0.810,-0.935,-22.430,-283.322,-113.258
-0.142,-0.827,-0.920,-19.654,-277.187,-110.771
-0.126,-0.857,-0.926,-15.994,-293.356,-108.329
-0.121,-0.872,-0.919,-9.833,-319.975,-105.682
-0.102,-0.884,-0.902,-5.487,-349.484,-101.688
-0.085,-0.891,-0.876,-2.703,-384.536,-98.120
-0.066,-0.896,-0.843,-1.298,-412.380,-95.346
-0.042,-0.904,-0.806,-1.010,-430.060,-92.199
-0.020,-0.915,-0.767,-0.892,-437.598,-89.948
0.003,-0.924,-0.730,-0.736,-433.567,-87.988
0.026,-0.927,-0.696,-0.487,-424.125,-86.565
0.043,-0.933,-0.668,0.570,-411.710,-82.743
0.054,-0.946,-0.642,2.522,-401.160,-78.493
0.058,-0.949,-0.617,5.028,-397.553,-75.854
0.067,-0.943,-0.585,6.383,-392.251,-73.435
0.078,-0.936,-0.550,6.781,-384.203,-70.469
0.089,-0.935,-0.512,6.693,-374.743,-67.414
0.096,-0.937,-0.473,6.432,-365.371,-64.926
0.102,-0.938,-0.434,5.695,-358.530,-61.458
0.104,-0.940,-0.398,4.411,-352.547,-58.511
0.109,-0.939,-0.361,2.611,-344.840,-56.209
0.119,-0.940,-0.326,0.620,-335.470,-54.270
0.126,-0.940,-0.292,-1.301,-325.815,-52.684
0.130,-0.939,-0.259,-3.090,-315.772,-51.524
0.135,-0.935,-0.228,-4.860,-305.833,-50.695
0.140,-0.929,-0.198,-7.045,-296.333,-50.216
0.141,-0.923,-0.170,-10.299,-287.443,-49.403
0.140,-0.921,-0.146,-13.880,-279.423,-48.257
0.137,-0.922,-0.122,-17.440,-272.770,-46.686
0.138,-0.923,-0.098,-20.626,-265.968,-45.182
0.143,-0.921,-0.074,-23.500,-258.686,-43.844
0.149,-0.917,-0.050,-26.651,-251.463,-43.134
0.152,-0.909,-0.031,-31.018,-244.889,-43.108
0.155,-0.900,-0.013,-37.510,-239.278,-44.038
0.158,-0.893,0.002,-46.087,-235.468,-45.600
0.162,-0.893,0.014,-53.525,-234.018,-45.919
0.168,-0.906,0.029,-57.321,-228.055,-45.063
0.170,-0.923,0.040,-57.309,-222.222,-42.537
0.161,-0.938,0.051,-56.080,-217.214,-37.383
0.153,-0.949,0.062,-51.553,-205.692,-29.104
0.150,-0.959,0.073,-42.432,-188.874,-21.557
0.149,-0.962,0.083,-30.906,-172.130,-15.604
0.146,-0.958,0.094,-20.262,-158.425,-11.447
0.141,-0.950,0.104,-12.062,-146.245,-8.986
0.137,-0.942,0.115,-6.754,-134.917,-7.980
0.131,-0.938,0.124,-2.879,-123.791,-7.631
0.127,-0.936,0.132,0.139,-112.545,-7.753
0.121,-0.935,0.140,2.246,-102.267,-8.143
0.114,-0.933,0.147,3.316,-93.670,-8.742
0.107,-0.931,0.154,3.660,-86.296,-9.417
0.098,-0.932,0.160,3.648,-79.879,-9.839
0.090,-0.935,0.167,3.706,-72.506,-10.018
0.082,-0.938,0.173,3.860,-66.432,-9.925
0.071,-0.940,0.177,3.875,-63.192,-9.720
0.058,-0.940,0.181,3.656,-61.494,-9.510
0.048,-0.938,0.186,3.057,-60.504,-9.411
0.041,-0.936,0.191,2.280,-59.497,-9.309
0.037,-0.938,0.196,1.716,-58.013,-9.184
0.033,-0.941,0.199,1.491,-56.122,-9.171
0.029,-0.943,0.202,1.413,-54.038,-9.162
0.025,-0.945,0.205,1.433,-51.683,-9.107
0.021,-0.947,0.208,1.506,-49.247,-9.086
0.017,-0.948,0.210,1.557,-47.060,-9.032
0.013,-0.949,0.212,1.534,-45.126,-8.864
0.008,-0.950,0.214,1.456,-43.429,-8.530
0.002,-0.951,0.215,1.347,-42.074,-7.966
-0.004,-0.952,0.217,1.244,-40.974,-7.154
-0.009,-0.953,0.217,1.216,-39.703,-6.350
-0.013,-0.954,0.218,1.274,-38.025,-5.914
-0.016,-0.951,0.220,1.413,-35.627,-5.801
-0.019,-0.947,0.221,1.506,-32.933,-5.971
-0.023,-0.944,0.223,1.422,-30.551,-6.123
-0.030,-0.943,0.223,1.209,-29.126,-6.153
-0.037,-0.944,0.223,0.983,-28.242,-6.097
-0.042,-0.946,0.223,0.823,-27.298,-6.048
-0.046,-0.945,0.224,0.635,-26.206,-6.257
-0.050,-0.943,0.225,0.237,-25.103,-6.798
-0.054,-0.939,0.224,-0.517,-24.296,-7.574
-0.059,-0.938,0.224,-1.584,-23.880,-9.402
-0.064,-0.937,0.223,-2.856,-23.706,-10.448
-0.068,-0.936,0.222,-4.158,-23.681,-11.395
-0.073,-0.936,0.220,-5.387,-23.797,-12.107
-0.077,-0.937,0.218,-6.398,-23.945,-12.506
-0.082,-0.939,0.217,-6.922,-23.991,-12.440
-0.087,-0.942,0.216,-6.967,-23.732,-11.954
-0.091,-0.946,0.216,-6.505,-22.565,-11.073
-0.094,-0.948,0.215,-5.531,-21.194,-9.842
-0.097,-0.951,0.216,-3.650,-18.324,-8.317
-0.099,-0.952,0.215,-1.678,-16.132,-6.909
-0.105,-0.949,0.214,-0.040,-14.919,-5.999
-0.108,-0.945,0.215,1.194,-13.389,-5.492
-0.110,-0.942,0.216,2.135,-11.706,-5.794
-0.113,-0.939,0.217,2.846,-9.922,-5.794
-0.116,-0.938,0.217,3.513,-7.999,-5.789
-0.120,-0.939,0.217,4.216,-6.083,-5.800
-0.125,-0.940,0.218,4.898,-4.475,-5.873
-0.129,-0.940,0.219,5.478,-3.008,-6.011
-0.133,-0.940,0.221,5.884,-1.675,-6.183
-0.136,-0.940,0.222,6.121,-0.663,-6.370
-0.141,-0.940,0.223,6.176,-0.158,-6.508
-0.146,-0.940,0.224,6.118,0.042,-6.569
-0.149,-0.940,0.226,6.051,0.235,-6.559
-0.152,-0.941,0.227,6.002,0.493,-6.466
-0.154,-0.941,0.227,6.069,0.894,-6.248
-0.157,-0.942,0.228,6.251,1.480,-5.906
-0.159,-0.943,0.228,6.521,2.133,-5.434
-0.162,-0.944,0.229,6.831,2.664,-4.832
-0.166,-0.944,0.229,7.114,3.039,-4.162
-0.170,-0.943,0.229,7.333,3.314,-3.516
-0.173,-0.943,0.229,7.479,3.596,-3.000
-0.176,-0.942,0.230,7.516,3.929,-2.689
-0.179,-0.941,0.230,7.465,4.281,-2.510
-0.182,-0.940,0.231,7.329,4.605,-2.442
-0.185,-0.939,0.232,7.119,4.885,-2.462
-0.188,-0.938,0.233,6.830,5.128,-2.546
-0.191,-0.937,0.233,6.447,5.310,-2.672
-0.194,-0.936,0.233,5.949,5.412,-2.836
-0.196,-0.936,0.233,5.366,5.393,-2.999
-0.199,-0.936,0.232,4.716,5.241,-3.150
-0.202,-0.937,0.231,3.995,4.950,-3.264
-0.205,-0.938,0.231,3.267,4.545,-3.316
-0.208,-0.939,0.231,2.600,4.126,-3.306
-0.210,-0.940,0.230,2.058,3.741,-3.219
-0.212,-0.941,0.230,1.696,3.435,-3.050
-0.214,-0.941,0.230,1.435,3.218,-2.822
-0.216,-0.942,0.230,1.249,3.088,-2.575
-0.217,-0.942,0.229,1.110,3.048,-2.339
-0.219,-0.942,0.229,0.988,3.064,-2.144
-0.220,-0.942,0.228,0.864,3.120,-2.010
-0.222,-0.941,0.227,0.743,3.190,-1.977
-0.224,-0.941,0.226,0.630,3.246,-2.009
-0.226,-0.941,0.226,0.514,3.275,-2.073
-0.227,-0.940,0.225,0.395,3.293,-2.161
-0.229,-0.941,0.225,0.290,3.301,-2.265
-0.230,-0.941,0.225,0.198,3.323,-2.363
-0.231,-0.941,0.225,0.115,3.349,-2.435
-0.232,-0.941,0.225,0.028,3.345,-2.486
-0.233,-0.942,0.225,-0.066,3.306,-2.511
-0.234,-0.942,0.225,-0.165,3.220,-2.505
-0.235,-0.942,0.225,-0.257,3.112,-2.468
-0.236,-0.942,0.225,-0.337,3.002,-2.399
-0.236,-0.943,0.225,-0.385,2.913,-2.291
-0.237,-0.943,0.225,-0.382,2.853,-2.140
-0.237,-0.944,0.224,-0.334,2.853,-1.958
-0.237,-0.945,0.225,-0.237,2.899,-1.761
-0.238,-0.945,0.225,-0.091,2.994,-1.558
-0.238,-0.945,0.225,0.075,3.135,-1.375
-0.239,-0.945,0.225,0.242,3.308,-1.219
-0.240,-0.946,0.226,0.393,3.491,-1.098
-0.240,-0.946,0.226,0.514,3.664,-1.013
-0.242,-0.946,0.227,0.613,3.815,-0.992
-0.243,-0.946,0.228,0.666,3.971,-1.097
-0.244,-0.944,0.229,0.538,3.929,-1.216
-0.246,-0.945,0.230,0.527,4.416,-1.232
-0.245,-0.947,0.229,0.532,4.487,-1.304
-0.248,-0.946,0.230,0.458,4.272,-1.548
-0.247,-0.945,0.231,0.377,4.635,-1.754
-0.246,-0.945,0.231,0.378,5.182,-1.912

-0.836,-0.530,-0.502,-1.797,18.773,-5.664
-0.836,-0.533,-0.517,-3.372,31.398,-9.635
-0.837,-0.538,-0.530,-4.324,42.563,-13.799
-0.838,-0.543,-0.543,-4.971,52.329,-17.887
-0.838,-0.549,-0.556,-5.397,60.454,-21.720
-0.838,-0.554,-0.565,-5.701,66.398,-25.133
-0.838,-0.558,-0.575,-6.059,70.250,-27.974
-0.839,-0.560,-0.581,-6.825,71.797,-30.437
-0.838,-0.560,-0.585,-8.125,71.642,-32.710
-0.835,-0.559,-0.585,-9.932,69.974,-34.870
-0.826,-0.561,-0.584,-12.115,68.382,-37.172
-0.803,-0.568,-0.579,-14.962,68.134,-40.219
-0.781,-0.578,-0.583,-17.742,68.076,-44.220
-0.761,-0.595,-0.594,-20.085,67.311,-49.401
-0.736,-0.616,-0.607,-21.792,66.047,-55.274
-0.705,-0.638,-0.623,-23.054,64.378,-61.159
-0.672,-0.657,-0.639,-24.402,62.362,-66.567
-0.639,-0.672,-0.656,-26.028,60.118,-71.406
-0.607,-0.686,-0.674,-27.948,57.513,-75.291
-0.577,-0.699,-0.690,-30.453,53.795,-77.871
-0.548,-0.712,-0.706,-33.339,48.923,-79.474
-0.518,-0.727,-0.721,-36.484,42.267,-80.375
-0.490,-0.740,-0.736,-39.168,34.558,-81.216
-0.461,-0.753,-0.750,-41.479,25.660,-82.077
-0.427,-0.762,-0.764,-42.978,16.277,-84.265
-0.396,-0.771,-0.778,-43.886,6.574,-85.084
-0.361,-0.784,-0.793,-44.183,-5.717,-84.961
-0.325,-0.797,-0.810,-43.685,-21.483,-83.699
-0.294,-0.807,-0.829,-42.826,-41.031,-82.184
-0.262,-0.816,-0.843,-41.437,-63.697,-80.670
-0.234,-0.824,-0.853,-39.458,-88.583,-79.443
-0.207,-0.833,-0.856,-35.911,-112.396,-77.707
-0.182,-0.849,-0.856,-31.168,-135.821,-75.945
-0.162,-0.860,-0.855,-25.592,-158.964,-74.273
-0.145,-0.865,-0.851,-19.819,-180.731,-72.662
-0.128,-0.870,-0.845,-13.695,-199.392,-71.215
-0.111,-0.872,-0.838,-6.933,-212.364,-70.097
-0.094,-0.870,-0.830,0.470,-221.467,-69.193
-0.079,-0.869,-0.824,9.204,-229.348,-68.415
-0.065,-0.869,-0.816,18.761,-236.979,-67.585
-0.052,-0.871,-0.805,28.482,-247.471,-66.517
-0.040,-0.875,-0.792,38.027,-261.171,-65.273
-0.028,-0.880,-0.776,47.411,-276.556,-64.170
-0.014,-0.885,-0.758,56.100,-289.940,-63.331
0.004,-0.889,-0.739,64.059,-300.981,-62.667
0.022,-0.895,-0.727,72.103,-310.060,-61.906
0.042,-0.902,-0.726,83.273,-316.035,-60.842
0.067,-0.914,-0.727,97.496,-320.451,-59.609
0.095,-0.928,-0.715,111.984,-325.255,-57.847
0.125,-0.936,-0.689,125.454,-328.300,-54.702
0.155,-0.935,-0.655,136.667,-328.718,-49.977
0.181,-0.923,-0.615,143.300,-326.939,-43.799
0.203,-0.908,-0.570,146.274,-323.421,-37.258
0.222,-0.890,-0.523,145.697,-317.236,-30.597
0.239,-0.872,-0.472,142.532,-311.614,-24.057
0.255,-0.854,-0.420,138.564,-305.952,-18.254
0.271,-0.836,-0.369,130.837,-300.659,-14.028
0.288,-0.816,-0.321,118.019,-296.566,-10.937
0.300,-0.800,-0.278,102.455,-292.252,-6.080
0.311,-0.792,-0.238,87.739,-287.630,-1.192
0.320,-0.783,-0.198,73.478,-282.787,2.482
0.328,-0.773,-0.157,59.622,-276.976,5.767
0.338,-0.764,-0.117,47.702,-270.212,9.219
0.346,-0.760,-0.078,38.559,-262.954,12.514
0.352,-0.757,-0.041,31.797,-255.668,15.604
0.355,-0.754,-0.005,26.769,-248.703,18.374
0.357,-0.750,0.028,22.829,-242.066,20.377
0.358,-0.747,0.059,19.623,-235.745,21.641
0.359,-0.744,0.088,16.813,-229.707,22.238
0.358,-0.741,0.116,14.314,-223.908,22.266
0.356,-0.739,0.142,11.896,-218.332,21.843
0.354,-0.738,0.167,9.453,-212.990,21.071
0.352,-0.738,0.191,5.683,-207.894,19.570
0.350,-0.739,0.212,2.713,-203.076,17.604
0.348,-0.743,0.229,-0.462,-198.539,15.257
0.347,-0.748,0.242,-3.497,-194.256,12.701
0.346,-0.755,0.251,-6.029,-190.019,10.366
0.347,-0.764,0.255,-7.791,-185.781,8.528
0.347,-0.774,0.258,-8.610,-181.735,7.263
0.346,-0.787,0.260,-8.427,-178.057,6.700
0.343,-0.801,0.263,-7.382,-173.167,6.404
0.339,-0.814,0.267,-5.347,-167.096,6.238
0.334,-0.825,0.272,-2.485,-159.737,6.225
0.327,-0.833,0.279,0.980,-151.799,6.289
0.319,-0.840,0.287,4.660,-143.810,6.381
0.310,-0.845,0.294,8.117,-136.057,6.427
0.301,-0.849,0.301,11.066,-128.452,6.432
0.293,-0.853,0.307,13.426,-121.187,6.436
0.285,-0.857,0.312,15.156,-114.125,6.455
0.276,-0.860,0.315,16.354,-107.754,6.480
0.267,-0.862,0.317,16.976,-101.993,6.531
0.258,-0.865,0.318,17.199,-96.685,6.599
0.250,-0.868,0.319,17.137,-91.752,6.681
0.241,-0.872,0.320,16.871,-87.257,6.714
0.233,-0.876,0.321,16.492,-83.099,6.636
0.225,-0.880,0.322,16.025,-79.133,6.415
0.216,-0.883,0.323,15.433,-75.263,6.060
0.208,-0.886,0.325,14.769,-71.478,5.563
0.200,-0.888,0.327,14.113,-67.693,5.011
0.191,-0.891,0.330,13.489,-63.818,4.534
0.182,-0.893,0.332,12.946,-59.873,4.341
0.173,-0.897,0.334,12.527,-55.996,4.471
0.164,-0.902,0.335,12.231,-52.469,5.048
0.154,-0.908,0.335,12.094,-50.474,6.131
0.146,-0.913,0.334,12.127,-47.883,7.579
0.137,-0.917,0.333,12.272,-45.541,9.247
0.129,-0.920,0.332,12.464,-43.428,10.924
0.121,-0.922,0.330,12.592,-41.516,12.340
0.113,-0.923,0.328,12.653,-39.753,13.419
0.105,-0.924,0.327,12.634,-38.115,14.128
0.097,-0.925,0.325,12.541,-36.574,14.510
0.089,-0.926,0.323,12.357,-35.127,14.614
0.080,-0.926,0.322,12.090,-33.831,14.483
0.072,-0.926,0.321,11.732,-32.662,14.166
0.063,-0.925,0.320,11.249,-31.609,13.704
0.055,-0.924,0.320,10.621,-30.639,13.109
0.047,-0.923,0.319,9.812,-29.756,12.481
0.039,-0.922,0.318,8.912,-28.950,11.865
0.031,-0.922,0.316,7.976,-28.208,11.295
0.024,-0.923,0.313,7.066,-27.430,10.798
0.018,-0.924,0.310,6.238,-26.601,10.396
0.011,-0.925,0.307,5.515,-25.689,10.082
0.005,-0.925,0.303,4.919,-24.728,9.874
-0.001,-0.926,0.300,4.514,-23.729,9.795
-0.008,-0.928,0.297,4.243,-22.734,9.774
-0.014,-0.929,0.293,4.075,-21.750,9.762
-0.021,-0.930,0.291,3.962,-20.759,9.727
-0.028,-0.930,0.288,3.884,-19.806,9.661
-0.034,-0.930,0.286,3.821,-18.930,9.540
-0.041,-0.930,0.284,3.744,-18.137,9.383
-0.047,-0.929,0.283,3.634,-17.419,9.195
-0.052,-0.928,0.282,3.470,-16.742,8.979
-0.057,-0.927,0.281,3.225,-16.106,8.728
-0.062,-0.926,0.279,2.907,-15.550,8.443
-0.066,-0.925,0.277,2.504,-15.063,8.131
-0.070,-0.924,0.275,2.056,-14.621,7.815
-0.075,-0.924,0.273,1.592,-14.228,7.511
-0.079,-0.923,0.270,1.145,-13.881,7.219
-0.083,-0.923,0.268,0.731,-13.592,6.952
-0.088,-0.924,0.266,0.373,-13.363,6.721
-0.092,-0.925,0.264,0.085,-13.190,6.547
-0.096,-0.927,0.262,-0.144,-13.068,6.426
-0.101,-0.928,0.261,-0.290,-13.029,6.364
-0.105,-0.929,0.261,-0.354,-13.056,6.350
-0.108,-0.930,0.261,-0.383,-13.113,6.399
-0.112,-0.930,0.262,-0.411,-13.194,6.467
-0.115,-0.929,0.263,-0.489,-13.281,6.545
-0.118,-0.928,0.263,-0.631,-13.350,6.618
-0.120,-0.927,0.264,-0.839,-13.417,6.669
-0.123,-0.927,0.264,-1.095,-13.495,6.669
-0.125,-0.928,0.264,-1.391,-13.583,6.611
-0.127,-0.928,0.263,-1.715,-13.687,6.496
-0.130,-0.929,0.263,-2.041,-13.813,6.329
-0.133,-0.930,0.263,-2.336,-13.952,6.124
-0.136,-0.932,0.263,-2.553,-14.089,5.891
-0.138,-0.934,0.263,-2.700,-14.198,5.656
-0.140,-0.936,0.263,-2.773,-14.262,5.432
-0.142,-0.938,0.264,-2.779,-14.225,5.229
-0.143,-0.940,0.265,-2.736,-14.068,5.059
-0.145,-0.941,0.266,-2.609,-13.759,4.940
-0.147,-0.942,0.266,-2.412,-13.283,4.857
-0.149,-0.943,0.267,-2.114,-12.666,4.799
-0.151,-0.944,0.267,-1.730,-11.906,4.766
-0.152,-0.944,0.267,-1.286,-11.055,4.756
-0.154,-0.945,0.267,-0.766,-10.151,4.746
-0.155,-0.946,0.267,-0.231,-9.227,4.726
-0.157,-0.947,0.268,0.304,-8.305,4.682
-0.159,-0.948,0.268,0.830,-7.400,4.626
-0.160,-0.949,0.269,1.337,-6.539,4.569
-0.161,-0.950,0.270,1.788,-5.716,4.512
-0.162,-0.951,0.271,2.187,-4.921,4.452
-0.162,-0.952,0.272,2.569,-4.157,4.397
-0.163,-0.952,0.274,2.958,-3.438,4.343
-0.163,-0.951,0.275,3.365,-2.773,4.280
-0.164,-0.951,0.276,3.744,-2.163,4.204
-0.164,-0.949,0.278,4.012,-1.571,4.111
-0.165,-0.948,0.279,4.193,-1.034,3.979
-0.166,-0.947,0.281,4.292,-0.564,3.794
-0.167,-0.947,0.282,4.317,-0.184,3.567
-0.168,-0.947,0.284,4.298,0.135,3.216
-0.168,-0.947,0.285,4.201,0.311,2.723
-0.169,-0.947,0.286,4.006,0.188,2.375
-0.169,-0.950,0.289,3.938,1.092,2.100
-0.169,-0.952,0.289,3.951,1.075,1.805
-0.172,-0.953,0.290,3.922,0.923,1.327
-0.170,-0.953,0.291,3.924,1.467,0.913
-0.168,-0.954,0.292,4.011,2.336,0.464
-0.166,-0.955,0.293,4.194,3.254,0.097
-0.165,-0.957,0.294,4.464,4.142,-0.185
-0.164,-0.958,0.295,4.780,5.040,-0.325
-0.163,-0.959,0.296,5.044,5.638,-0.399
-0.162,-0.959,0.298,5.188,5.923,-0.463
-0.161,-0.959,0.299,5.231,6.048,-0.526
-0.159,-0.958,0.300,5.199,6.144,-0.578
-0.157,-0.958,0.301,5.121,6.203,-0.592
-0.155,-0.957,0.302,4.985,6.212,-0.539
-0.153,-0.957,0.302,4.800,6.186,-0.418
-0.151,-0.955,0.303,4.579,6.165,-0.245
-0.149,-0.954,0.303,4.336,6.215,-0.053

-0.681,-0.805,-0.380,6.841,23.341,0.137
-0.682,-0.804,-0.394,10.218,39.698,0.355
-0.685,-0.801,-0.407,14.080,55.392,0.571
-0.690,-0.796,-0.421,17.750,69.375,0.837
-0.696,-0.787,-0.435,20.707,81.276,1.116
-0.704,-0.777,-0.449,22.688,91.215,1.382
-0.712,-0.766,-0.464,23.590,98.709,1.639
-0.721,-0.755,-0.481,23.494,104.262,1.912
-0.730,-0.742,-0.499,22.603,107.918,2.120
-0.739,-0.729,-0.520,20.248,110.041,2.179
-0.748,-0.716,-0.541,15.872,110.974,2.018
-0.756,-0.705,-0.566,11.039,111.286,1.564
-0.762,-0.697,-0.590,6.572,111.114,0.741
-0.767,-0.691,-0.612,2.905,111.008,-0.324
-0.768,-0.686,-0.631,0.038,112.055,-1.510
-0.767,-0.682,-0.650,-2.482,113.941,-3.093
-0.766,-0.678,-0.668,-5.321,115.748,-5.508
-0.764,-0.675,-0.683,-9.224,116.328,-8.942
-0.759,-0.673,-0.703,-14.329,115.007,-13.151
-0.752,-0.674,-0.728,-21.032,112.257,-18.739
-0.736,-0.678,-0.752,-27.810,108.568,-26.860
-0.721,-0.681,-0.780,-34.391,104.946,-35.925
-0.700,-0.690,-0.811,-39.640,99.380,-45.197
-0.674,-0.701,-0.843,-42.627,90.401,-54.273
-0.650,-0.709,-0.875,-43.862,77.955,-63.468
-0.625,-0.714,-0.906,-43.857,60.029,-72.256
-0.598,-0.719,-0.934,-43.045,37.999,-80.177
-0.568,-0.722,-0.957,-40.947,11.556,-86.814
-0.540,-0.725,-0.973,-37.250,-19.701,-92.303
-0.511,-0.729,-0.978,-32.426,-58.679,-96.845
-0.481,-0.736,-0.976,-27.260,-102.260,-100.706
-0.447,-0.750,-0.965,-22.282,-147.562,-104.026
-0.407,-0.768,-0.948,-18.219,-189.813,-107.057
-0.361,-0.788,-0.925,-14.727,-227.352,-109.292
-0.324,-0.808,-0.900,-11.514,-262.130,-109.259
-0.292,-0.828,-0.875,-7.639,-291.607,-108.761
-0.256,-0.842,-0.853,-2.499,-307.422,-109.345
-0.219,-0.847,-0.834,3.531,-310.287,-112.043
-0.181,-0.848,-0.818,9.691,-307.395,-118.682
-0.149,-0.844,-0.807,15.639,-304.816,-123.823
-0.128,-0.855,-0.805,22.179,-311.433,-122.294
-0.112,-0.882,-0.809,34.007,-325.126,-120.409
-0.083,-0.908,-0.812,54.259,-334.443,-118.481
-0.040,-0.925,-0.810,77.409,-337.173,-116.204
0.004,-0.933,-0.805,100.614,-334.792,-113.495
0.045,-0.939,-0.789,121.354,-332.896,-109.878
0.077,-0.944,-0.764,137.310,-336.834,-103.430
0.102,-0.943,-0.727,147.797,-346.613,-95.002
0.127,-0.936,-0.681,153.853,-353.714,-85.176
0.156,-0.920,-0.629,156.316,-350.835,-76.621
0.181,-0.893,-0.575,154.905,-344.911,-71.660
0.199,-0.852,-0.523,150.577,-343.338,-66.588
0.206,-0.829,-0.468,144.626,-338.709,-58.615
0.216,-0.819,-0.421,137.734,-331.807,-47.976
0.221,-0.814,-0.381,130.884,-326.047,-38.646
0.231,-0.803,-0.344,123.550,-317.977,-30.608
0.248,-0.790,-0.310,115.696,-308.263,-21.924
0.261,-0.783,-0.274,106.502,-299.282,-13.567
0.265,-0.780,-0.237,96.224,-291.938,-6.501
0.272,-0.777,-0.199,85.881,-285.108,-2.096
0.281,-0.771,-0.161,75.863,-278.283,0.185
0.290,-0.764,-0.123,66.332,-271.277,1.008
0.299,-0.755,-0.085,57.352,-263.796,1.076
0.306,-0.747,-0.047,48.918,-256.612,0.898
0.311,-0.741,-0.012,41.152,-249.753,0.855
0.313,-0.739,0.021,34.385,-243.272,1.978
0.313,-0.743,0.052,29.555,-237.262,3.247
0.312,-0.750,0.080,26.425,-231.504,5.079
0.313,-0.757,0.106,24.451,-225.831,6.620
0.314,-0.760,0.130,22.426,-220.365,7.223
0.316,-0.759,0.150,20.144,-215.073,7.153
0.317,-0.760,0.168,17.612,-209.990,6.759
0.317,-0.765,0.184,15.398,-205.114,6.029
0.319,-0.771,0.198,14.041,-200.500,4.858
0.320,-0.776,0.212,13.437,-196.144,3.725
0.318,-0.778,0.226,13.116,-192.022,3.085
0.314,-0.781,0.240,13.065,-188.041,2.970
0.308,-0.786,0.253,13.620,-182.730,3.466
0.301,-0.793,0.266,15.308,-174.959,4.530
0.295,-0.800,0.278,18.037,-166.287,5.808
0.289,-0.805,0.289,21.116,-157.584,6.937
0.283,-0.809,0.299,23.955,-148.625,7.892
0.277,-0.812,0.307,26.556,-139.418,8.452
0.270,-0.816,0.315,28.842,-129.778,8.650
0.264,-0.818,0.321,30.830,-119.782,8.528
0.257,-0.821,0.325,32.408,-109.984,8.172
0.250,-0.822,0.329,33.467,-100.921,7.638
0.242,-0.824,0.333,33.999,-93.223,7.002
0.234,-0.826,0.338,34.090,-86.707,6.353
0.225,-0.827,0.345,33.819,-81.144,5.805
0.215,-0.828,0.352,33.316,-76.343,5.418
0.205,-0.830,0.360,32.636,-72.043,5.229
0.195,-0.833,0.368,31.915,-68.045,5.201
0.186,-0.837,0.375,31.191,-64.301,5.292
0.177,-0.841,0.381,30.453,-60.886,5.429
0.169,-0.844,0.386,29.695,-57.737,5.549
0.161,-0.848,0.389,28.906,-54.828,5.620
0.154,-0.852,0.391,28.092,-52.074,5.611
0.148,-0.856,0.393,27.337,-49.372,5.475
0.142,-0.859,0.394,26.613,-46.655,5.264
0.136,-0.861,0.395,25.920,-43.708,4.928
0.130,-0.863,0.397,25.214,-40.187,3.989
0.123,-0.860,0.396,24.241,-37.753,3.050
0.116,-0.863,0.398,23.211,-34.152,2.601
0.109,-0.868,0.398,22.508,-31.340,2.434
0.098,-0.873,0.398,22.359,-29.998,2.779
0.088,-0.877,0.399,21.835,-29.133,3.493
0.082,-0.880,0.400,21.404,-28.213,4.230
0.077,-0.881,0.401,21.051,-27.046,4.762
0.072,-0.882,0.402,20.759,-25.514,5.013
0.068,-0.883,0.403,20.468,-23.368,5.070
0.062,-0.883,0.404,20.157,-21.077,4.997
0.055,-0.883,0.403,19.829,-18.917,4.808
0.049,-0.884,0.402,19.460,-16.893,4.583
0.042,-0.885,0.400,19.043,-15.184,4.364
0.035,-0.885,0.399,18.572,-13.958,4.159
0.028,-0.885,0.398,17.972,-13.152,3.959
0.021,-0.885,0.397,17.267,-12.678,3.696
0.014,-0.883,0.396,16.406,-12.547,3.251
0.008,-0.882,0.397,15.304,-12.590,2.634
0.002,-0.881,0.397,13.916,-12.852,1.819
-0.004,-0.880,0.397,12.271,-13.263,0.810
-0.009,-0.880,0.396,10.382,-13.752,-0.289
-0.013,-0.880,0.396,8.460,-14.264,-1.345
-0.018,-0.881,0.396,6.627,-14.720,-2.306
-0.022,-0.883,0.395,4.950,-15.115,-3.092
-0.027,-0.885,0.394,3.608,-15.465,-3.535
-0.031,-0.888,0.392,2.600,-15.628,-3.695
-0.035,-0.891,0.389,1.924,-15.602,-3.626
-0.039,-0.894,0.386,1.541,-15.119,-3.335
-0.043,-0.896,0.383,1.404,-14.125,-2.827
-0.046,-0.898,0.380,1.481,-12.779,-2.203
-0.050,-0.898,0.378,1.618,-11.443,-1.632
-0.053,-0.899,0.375,1.754,-10.103,-1.015
-0.055,-0.900,0.373,1.959,-8.489,-0.294
-0.058,-0.902,0.371,2.321,-6.654,0.379
-0.060,-0.903,0.370,2.776,-4.881,1.083
-0.064,-0.903,0.369,3.182,-3.381,1.740
-0.067,-0.902,0.368,3.528,-2.027,2.293
-0.070,-0.902,0.367,3.837,-0.689,2.661
-0.072,-0.901,0.366,4.083,0.532,2.876
-0.075,-0.900,0.364,4.232,1.512,2.967
-0.078,-0.899,0.363,4.283,2.101,2.993
-0.082,-0.899,0.362,4.261,2.421,2.956
-0.084,-0.899,0.361,4.170,2.572,2.855
-0.087,-0.900,0.360,4.044,2.618,2.716
-0.089,-0.900,0.359,3.888,2.644,2.548
-0.091,-0.902,0.358,3.694,2.730,2.375
-0.093,-0.902,0.357,3.500,2.864,2.210
-0.095,-0.903,0.356,3.312,3.059,2.059
-0.097,-0.905,0.355,3.189,3.296,1.932
-0.099,-0.906,0.355,3.197,3.582,1.825
-0.102,-0.907,0.356,3.305,3.971,1.737
-0.104,-0.908,0.357,3.481,4.487,1.702
-0.106,-0.909,0.358,3.712,5.154,1.647
-0.108,-0.910,0.360,3.941,5.727,1.592
-0.111,-0.911,0.361,4.177,6.265,1.620
-0.113,-0.914,0.362,4.451,6.938,1.733
-0.115,-0.916,0.363,4.739,7.283,1.849
-0.118,-0.917,0.365,4.947,7.417,1.977
-0.121,-0.918,0.366,5.095,7.509,2.110
-0.123,-0.920,0.366,5.209,7.609,2.238
-0.125,-0.921,0.367,5.307,7.640,2.365
-0.128,-0.923,0.367,5.346,7.564,2.486
-0.130,-0.924,0.368,5.343,7.403,2.584
-0.133,-0.924,0.369,5.234,7.168,2.646
-0.136,-0.924,0.370,5.043,6.883,2.670
-0.138,-0.924,0.371,4.770,6.522,2.652
-0.141,-0.924,0.372,4.390,6.114,2.586
-0.143,-0.924,0.373,3.944,5.663,2.487
-0.145,-0.923,0.373,3.459,5.184,2.368
-0.147,-0.923,0.374,2.961,4.700,2.251
-0.149,-0.922,0.374,2.496,4.221,2.143
-0.151,-0.922,0.375,2.067,3.770,2.055
-0.152,-0.922,0.374,1.675,3.356,1.978
-0.154,-0.923,0.374,1.301,2.981,1.912
-0.155,-0.923,0.374,0.965,2.626,1.849
-0.155,-0.922,0.374,0.672,2.317,1.789
-0.156,-0.922,0.374,0.429,2.016,1.743
-0.156,-0.921,0.373,0.190,1.710,1.712
-0.157,-0.921,0.373,-0.061,1.404,1.690
-0.157,-0.920,0.373,-0.331,1.081,1.686
-0.157,-0.919,0.372,-0.622,0.755,1.693
-0.157,-0.918,0.372,-0.921,0.426,1.703
-0.158,-0.918,0.372,-1.213,0.111,1.700
-0.158,-0.917,0.372,-1.479,-0.177,1.694
-0.158,-0.916,0.372,-1.728,-0.425,1.684
-0.157,-0.916,0.371,-1.951,-0.608,1.678
-0.157,-0.915,0.371,-2.174,-0.739,1.674
-0.157,-0.914,0.371,-2.388,-0.827,1.682
-0.156,-0.913,0.371,-2.584,-0.870,1.698
-0.156,-0.912,0.370,-2.774,-0.869,1.731
-0.155,-0.911,0.370,-2.946,-0.853,1.780
-0.155,-0.911,0.369,-3.075,-0.827,1.844
-0.154,-0.911,0.369,-3.169,-0.797,1.924
-0.153,-0.911,0.369,-3.235,-0.721,2.021
-0.152,-0.911,0.368,-3.276,-0.601,2.135
-0.151,-0.912,0.368,-3.303,-0.431,2.267
-0.150,-0.912,0.368,-3.336,-0.212,2.408

-0.687,-0.708,-0.493,-2.519,30.700,2.800
-0.695,-0.706,-0.522,-1.952,57.424,2.902
-0.705,-0.704,-0.551,-1.745,80.625,2.803
-0.717,-0.699,-0.583,-2.011,96.938,2.550
-0.731,-0.695,-0.616,-3.159,108.540,2.094
-0.746,-0.688,-0.646,-5.396,115.820,1.433
-0.760,-0.683,-0.670,-9.142,120.253,0.514
-0.773,-0.678,-0.686,-13.143,122.559,-0.357
-0.785,-0.675,-0.692,-16.823,123.198,-1.069
-0.794,-0.673,-0.695,-19.474,122.834,-1.706
-0.796,-0.671,-0.694,-20.825,121.731,-2.065
-0.792,-0.668,-0.690,-21.848,122.351,-1.910
-0.776,-0.665,-0.688,-22.543,125.015,-1.404
-0.773,-0.660,-0.697,-23.256,124.895,-1.156
-0.773,-0.654,-0.712,-24.401,122.569,-1.427
-0.772,-0.648,-0.733,-26.471,119.231,-2.308
-0.766,-0.643,-0.759,-28.930,115.297,-4.008
-0.759,-0.638,-0.791,-31.612,111.233,-6.816
-0.744,-0.637,-0.821,-33.924,107.371,-10.710
-0.730,-0.641,-0.850,-35.224,103.567,-15.200
-0.716,-0.646,-0.873,-36.017,97.208,-19.778
-0.700,-0.652,-0.893,-36.334,86.879,-24.314
-0.686,-0.656,-0.911,-36.398,73.652,-28.640
-0.672,-0.660,-0.927,-36.373,57.834,-32.678
-0.660,-0.661,-0.942,-36.278,39.936,-36.453
-0.650,-0.661,-0.956,-36.052,22.034,-40.814
-0.637,-0.661,-0.971,-35.840,5.446,-46.342
-0.624,-0.660,-0.983,-35.504,-9.834,-52.433
-0.610,-0.659,-0.993,-34.996,-27.362,-56.289
-0.597,-0.663,-1.004,-34.398,-47.128,-61.213
-0.576,-0.661,-1.012,-33.586,-65.868,-66.675
-0.554,-0.664,-1.015,-32.455,-85.779,-72.863
-0.528,-0.671,-1.012,-31.081,-107.665,-78.721
-0.499,-0.680,-1.003,-29.310,-130.579,-84.664
-0.468,-0.691,-0.990,-26.851,-152.004,-91.787
-0.432,-0.701,-0.967,-23.820,-168.408,-101.398
-0.394,-0.706,-0.936,-21.520,-175.589,-113.668
-0.356,-0.707,-0.904,-19.612,-179.809,-123.389
-0.331,-0.721,-0.878,-16.926,-184.681,-129.032
-0.310,-0.733,-0.854,-11.663,-188.806,-137.126
-0.287,-0.733,-0.831,-4.617,-189.311,-145.286
-0.264,-0.729,-0.815,3.328,-190.130,-151.257
-0.244,-0.736,-0.799,11.010,-197.082,-153.424
-0.234,-0.748,-0.784,16.558,-221.848,-152.353
-0.221,-0.772,-0.785,21.027,-259.871,-149.023
-0.187,-0.806,-0.794,28.544,-287.071,-145.258
-0.143,-0.840,-0.799,41.758,-304.035,-141.690
-0.096,-0.855,-0.796,60.799,-313.021,-137.312
-0.053,-0.858,-0.781,80.116,-315.801,-130.600
-0.023,-0.851,-0.749,96.944,-314.858,-122.912
-0.002,-0.832,-0.706,109.303,-311.043,-118.296
0.017,-0.795,-0.656,113.460,-305.770,-114.716
0.027,-0.760,-0.603,112.471,-302.617,-109.236
0.034,-0.747,-0.540,109.901,-295.112,-101.419
0.044,-0.748,-0.484,107.069,-289.764,-94.867
0.049,-0.745,-0.430,101.743,-285.707,-89.612
0.062,-0.747,-0.384,94.225,-280.300,-85.093
0.078,-0.750,-0.349,86.135,-272.804,-82.131
0.093,-0.750,-0.317,78.559,-265.197,-78.947
0.099,-0.752,-0.289,71.244,-258.157,-74.864
0.098,-0.756,-0.262,64.493,-252.196,-70.446
0.097,-0.758,-0.234,58.718,-246.795,-66.562
0.098,-0.758,-0.200,53.595,-241.238,-63.602
0.102,-0.757,-0.168,48.544,-235.504,-61.427
0.107,-0.755,-0.137,43.417,-229.730,-59.888
0.110,-0.756,-0.106,38.126,-224.095,-58.699
0.112,-0.757,-0.077,32.466,-218.694,-57.837
0.109,-0.756,-0.051,26.204,-213.613,-57.197
0.109,-0.756,-0.027,19.764,-208.769,-56.433
0.109,-0.762,-0.005,14.193,-204.158,-55.301
0.107,-0.775,0.016,10.955,-199.726,-54.010
0.108,-0.788,0.035,9.400,-195.256,-52.630
0.112,-0.798,0.051,8.888,-191.108,-51.221
0.113,-0.806,0.065,8.807,-187.285,-49.722
0.113,-0.814,0.077,8.941,-183.551,-48.210
0.112,-0.820,0.088,9.197,-179.925,-46.808
0.112,-0.825,0.098,9.602,-176.019,-45.404
0.111,-0.831,0.108,10.203,-171.730,-43.975
0.109,-0.836,0.118,11.015,-167.122,-42.556
0.106,-0.841,0.129,11.982,-161.684,-41.119
0.104,-0.845,0.140,13.169,-155.555,-39.689
0.101,-0.850,0.150,14.547,-148.717,-38.391
0.098,-0.856,0.160,15.975,-141.591,-37.198
0.094,-0.861,0.169,17.306,-134.513,-36.089
0.090,-0.867,0.178,18.479,-127.749,-35.060
0.086,-0.872,0.184,19.454,-121.524,-34.126
0.083,-0.877,0.190,20.228,-115.858,-33.328
0.079,-0.881,0.194,20.677,-110.635,-32.769
0.076,-0.884,0.198,20.625,-105.739,-32.358
0.073,-0.886,0.202,20.289,-101.102,-32.122
0.070,-0.887,0.206,19.787,-96.666,-32.036
0.066,-0.890,0.210,19.133,-92.346,-31.982
0.061,-0.893,0.214,18.465,-88.043,-31.783
0.057,-0.898,0.217,17.947,-83.733,-31.238
0.052,-0.905,0.221,17.717,-79.511,-30.167
0.046,-0.912,0.224,17.792,-75.510,-28.400
0.040,-0.919,0.227,18.172,-71.945,-26.104
0.034,-0.925,0.230,18.725,-68.743,-23.549
0.030,-0.928,0.233,19.247,-65.847,-21.011
0.026,-0.930,0.236,19.538,-63.171,-18.775
0.023,-0.930,0.239,19.633,-60.707,-16.873
0.020,-0.931,0.240,19.542,-58.488,-15.282
0.017,-0.931,0.241,19.273,-56.402,-14.000
0.013,-0.932,0.242,18.886,-54.536,-12.999
0.009,-0.931,0.243,18.409,-52.869,-12.274
0.005,-0.931,0.245,17.791,-51.327,-11.910
0.001,-0.930,0.247,16.956,-49.856,-11.724
-0.004,-0.930,0.250,16.001,-48.444,-11.613
-0.009,-0.931,0.253,15.030,-47.072,-11.550
-0.013,-0.932,0.257,14.016,-45.639,-11.586
-0.016,-0.931,0.260,12.859,-44.373,-11.770
-0.022,-0.931,0.262,11.796,-43.017,-11.695
-0.024,-0.935,0.265,11.024,-40.584,-11.072
-0.030,-0.940,0.265,10.646,-39.448,-10.426
-0.035,-0.942,0.265,10.381,-38.035,-9.736
-0.037,-0.941,0.265,10.230,-35.826,-8.725
-0.040,-0.944,0.262,10.250,-33.655,-7.543
-0.045,-0.946,0.260,10.370,-32.051,-6.629
-0.049,-0.946,0.260,10.453,-30.572,-6.006
-0.052,-0.945,0.260,10.448,-28.830,-5.621
-0.055,-0.944,0.261,10.389,-26.927,-5.438
-0.059,-0.945,0.262,10.289,-25.133,-5.355
-0.063,-0.945,0.264,10.155,-23.503,-5.322
-0.067,-0.945,0.265,9.961,-22.001,-5.355
-0.070,-0.944,0.267,9.655,-20.662,-5.474
-0.075,-0.943,0.268,9.190,-19.609,-5.729
-0.079,-0.942,0.269,8.460,-18.787,-6.021
-0.083,-0.941,0.269,7.591,-18.231,-6.316
-0.086,-0.940,0.269,6.651,-17.947,-6.587
-0.089,-0.940,0.268,5.718,-17.769,-6.791
-0.092,-0.941,0.267,4.892,-17.629,-6.877
-0.094,-0.942,0.266,4.217,-17.491,-6.818
-0.097,-0.944,0.264,3.709,-17.276,-6.676
-0.099,-0.944,0.264,3.279,-17.046,-6.509
-0.102,-0.943,0.263,2.833,-16.976,-6.227
-0.104,-0.944,0.263,2.407,-16.636,-5.665
-0.107,-0.944,0.262,2.081,-16.609,-5.267
-0.110,-0.943,0.262,1.705,-16.417,-4.953
-0.111,-0.940,0.262,1.328,-15.968,-4.726
-0.113,-0.939,0.262,0.978,-15.440,-4.518
-0.114,-0.939,0.261,0.740,-14.777,-4.308
-0.116,-0.939,0.261,0.626,-13.972,-4.099
-0.118,-0.940,0.260,0.599,-13.264,-3.743
-0.120,-0.941,0.259,0.676,-12.541,-3.378
-0.121,-0.942,0.258,0.862,-11.681,-3.058
-0.123,-0.942,0.257,1.110,-10.783,-2.806
-0.124,-0.942,0.256,1.383,-9.984,-2.557
-0.126,-0.942,0.255,1.658,-9.233,-2.396
-0.128,-0.942,0.255,1.895,-8.607,-2.342
-0.130,-0.940,0.255,2.006,-8.157,-2.356
-0.132,-0.941,0.255,2.086,-7.486,-2.417
-0.132,-0.941,0.255,2.228,-6.535,-2.524
-0.133,-0.941,0.255,2.352,-5.797,-2.602
-0.135,-0.941,0.255,2.433,-5.127,-2.671
-0.136,-0.941,0.255,2.503,-4.398,-2.733
-0.136,-0.942,0.256,2.634,-3.588,-2.800
-0.137,-0.943,0.255,2.783,-2.811,-2.844
-0.138,-0.943,0.255,2.949,-2.133,-2.854
-0.139,-0.944,0.255,3.158,-1.509,-2.837
-0.140,-0.945,0.255,3.378,-0.853,-2.811
-0.141,-0.945,0.256,3.615,-0.127,-2.783
-0.142,-0.946,0.256,3.850,0.576,-2.764
-0.144,-0.946,0.256,4.094,1.278,-2.746
-0.145,-0.947,0.257,4.366,1.927,-2.738
-0.146,-0.947,0.257,4.637,2.455,-2.732
-0.147,-0.947,0.258,4.829,2.958,-2.696
-0.148,-0.948,0.259,4.950,3.455,-2.682
-0.149,-0.948,0.260,4.985,3.784,-2.691
-0.150,-0.948,0.261,4.957,4.019,-2.663
-0.150,-0.948,0.261,4.922,4.250,-2.666
-0.151,-0.948,0.262,4.868,4.347,-2.691
-0.152,-0.947,0.262,4.762,4.392,-2.700
-0.153,-0.948,0.263,4.658,4.557,-2.737
-0.153,-0.948,0.263,4.557,4.723,-2.786
-0.155,-0.949,0.263,4.458,4.762,-2.826
-0.155,-0.949,0.263,4.365,4.738,-2.865
-0.155,-0.949,0.263,4.307,4.747,-2.932
-0.156,-0.950,0.263,4.303,4.824,-3.028
-0.156,-0.950,0.263,4.302,4.881,-3.144
-0.157,-0.950,0.264,4.261,4.914,-3.268
-0.158,-0.951,0.265,4.178,4.874,-3.397
-0.159,-0.951,0.265,4.063,4.732,-3.544
-0.160,-0.950,0.266,3.876,4.618,-3.662
-0.160,-0.950,0.267,3.656,4.503,-3.782
-0.160,-0.951,0.267,3.414,4.364,-3.903
-0.161,-0.951,0.267,3.159,4.189,-4.007
-0.161,-0.951,0.267,2.888,3.988,-4.092
-0.161,-0.952,0.267,2.622,3.772,-4.161
-0.161,-0.952,0.267,2.363,3.572,-4.214
-0.161,-0.953,0.266,2.104,3.391,-4.249
-0.161,-0.953,0.266,1.862,3.229,-4.278
-0.161,-0.954,0.266,1.631,3.086,-4.296
-0.161,-0.955,0.266,1.429,2.980,-4.305
-0.161,-0.955,0.266,1.251,2.908,-4.306
-0.162,-0.956,0.266,1.105,2.860,-4.307
-0.162,-0.956,0.265,0.966,2.819,-4.314
-0.162,-0.956,0.265,0.829,2.789,-4.307
-0.162,-0.957,0.265,0.690,2.730,-4.285
-0.162,-0.957,0.265,0.553,2.650,-4.248

-0.884,-0.769,-0.231,3.819,22.717,-6.260
-0.888,-0.772,-0.244,7.256,40.901,-8.303
-0.894,-0.774,-0.259,10.539,57.623,-10.334
-0.898,-0.776,-0.274,13.110,73.363,-12.265
-0.903,-0.778,-0.290,14.568,88.240,-13.987
-0.908,-0.780,-0.307,15.174,101.461,-15.484
-0.912,-0.782,-0.327,14.931,112.445,-16.785
-0.917,-0.782,-0.347,13.575,120.527,-17.954
-0.920,-0.780,-0.368,10.386,125.863,-19.046
-0.921,-0.775,-0.390,6.396,128.907,-20.338
-0.919,-0.775,-0.417,2.282,129.765,-21.887
-0.914,-0.777,-0.438,-1.632,130.931,-23.434
-0.902,-0.779,-0.458,-4.889,134.271,-24.982
-0.889,-0.782,-0.477,-7.163,137.029,-26.405
-0.883,-0.784,-0.496,-9.499,137.887,-27.632
-0.868,-0.790,-0.513,-12.580,136.318,-28.844
-0.849,-0.802,-0.530,-15.762,133.105,-29.997
-0.829,-0.821,-0.549,-18.843,128.712,-31.035
-0.809,-0.844,-0.570,-21.922,124.152,-31.931
-0.788,-0.865,-0.592,-25.316,117.175,-32.700
-0.768,-0.885,-0.615,-29.468,105.062,-33.383
-0.750,-0.901,-0.638,-34.712,86.860,-34.074
-0.732,-0.916,-0.662,-40.038,62.892,-34.649
-0.715,-0.930,-0.685,-44.755,31.261,-35.106
-0.700,-0.943,-0.705,-48.728,-4.507,-35.481
-0.686,-0.949,-0.722,-51.480,-42.879,-35.871
-0.673,-0.955,-0.738,-52.979,-82.673,-36.397
-0.658,-0.959,-0.752,-53.428,-124.143,-37.131
-0.643,-0.961,-0.761,-53.097,-164.879,-38.589
-0.623,-0.960,-0.764,-52.042,-199.919,-41.674
-0.595,-0.958,-0.756,-50.015,-224.861,-47.638
-0.560,-0.955,-0.738,-45.769,-246.271,-56.061
-0.527,-0.965,-0.706,-36.401,-269.912,-60.024
-0.493,-0.974,-0.663,-22.841,-298.912,-64.532
-0.456,-0.974,-0.605,-8.543,-323.326,-69.549
-0.416,-0.972,-0.547,5.483,-340.856,-71.393
-0.385,-0.981,-0.510,22.041,-360.640,-70.334
-0.357,-0.992,-0.500,43.276,-383.840,-67.082
-0.329,-0.997,-0.500,75.079,-408.271,-61.388
-0.289,-0.997,-0.501,118.581,-429.599,-54.919
-0.235,-1.002,-0.501,157.663,-440.883,-49.584
-0.165,-1.017,-0.496,193.249,-441.573,-44.197
-0.088,-1.043,-0.483,230.342,-434.160,-38.375
-0.011,-1.073,-0.461,273.420,-422.676,-31.898
0.056,-1.082,-0.431,315.940,-409.735,-24.145
0.107,-1.064,-0.391,347.600,-398.306,-14.811
0.158,-1.018,-0.343,365.754,-384.269,-3.517
0.201,-0.952,-0.286,369.624,-373.520,10.427
0.220,-0.879,-0.224,358.695,-362.411,24.121
0.225,-0.805,-0.163,344.256,-350.938,35.822
0.223,-0.740,-0.108,334.664,-339.822,47.917
0.217,-0.697,-0.061,316.208,-329.016,57.000
0.215,-0.670,-0.018,289.499,-318.651,61.490
0.216,-0.645,0.022,255.181,-308.915,62.625
0.215,-0.616,0.056,206.634,-300.101,61.651
0.220,-0.592,0.080,159.965,-291.253,62.604
0.231,-0.591,0.098,134.289,-283.504,67.906
0.241,-0.610,0.120,127.942,-277.091,73.322
0.245,-0.620,0.148,125.061,-269.065,74.907
0.250,-0.608,0.178,123.195,-258.822,75.018
0.252,-0.586,0.211,120.609,-249.299,75.916
0.245,-0.568,0.245,117.585,-243.257,76.540
0.235,-0.546,0.275,111.695,-237.421,75.961
0.228,-0.524,0.303,101.597,-231.502,74.747
0.223,-0.506,0.328,88.420,-225.836,73.448
0.224,-0.496,0.347,75.021,-220.397,72.254
0.226,-0.491,0.365,64.112,-215.189,70.852
0.229,-0.490,0.381,57.743,-210.358,69.123
0.231,-0.491,0.398,55.508,-205.845,67.714
0.230,-0.495,0.416,54.633,-201.501,66.758
0.226,-0.499,0.435,55.131,-196.018,66.176
0.224,-0.501,0.454,56.882,-188.729,65.780
0.224,-0.501,0.473,59.202,-180.872,65.322
0.224,-0.499,0.491,61.643,-172.777,64.551
0.224,-0.494,0.509,63.779,-164.743,63.440
0.223,-0.489,0.525,65.317,-156.894,62.333
0.219,-0.484,0.541,66.179,-149.235,61.351
0.213,-0.480,0.556,66.377,-141.709,60.551
0.205,-0.475,0.572,66.034,-134.633,59.878
0.196,-0.471,0.587,65.294,-128.115,59.143
0.188,-0.466,0.602,64.223,-122.177,58.193
0.180,-0.460,0.616,62.786,-116.996,57.089
0.172,-0.454,0.630,60.912,-112.734,55.775
0.164,-0.448,0.643,58.068,-109.243,54.308
0.156,-0.443,0.656,54.307,-106.395,52.773
0.149,-0.440,0.667,49.889,-103.849,51.059
0.142,-0.438,0.676,45.182,-101.393,49.000
0.137,-0.437,0.685,40.262,-99.150,46.560
0.131,-0.437,0.691,35.900,-96.468,44.063
0.127,-0.440,0.696,32.506,-93.256,41.565
0.122,-0.443,0.701,29.907,-89.779,39.178
0.117,-0.446,0.706,27.861,-86.107,37.218
0.112,-0.449,0.711,26.405,-81.844,35.934
0.106,-0.453,0.715,25.787,-77.091,35.065
0.100,-0.458,0.720,25.468,-72.190,34.453
0.095,-0.462,0.725,25.461,-67.083,34.017
0.090,-0.465,0.731,25.778,-61.783,33.610
0.086,-0.468,0.737,26.325,-56.728,33.129
0.082,-0.469,0.743,26.918,-52.087,32.497
0.077,-0.469,0.749,27.385,-48.048,31.669
0.073,-0.468,0.754,27.428,-44.692,30.619
0.068,-0.467,0.759,27.135,-41.993,29.228
0.063,-0.465,0.763,26.551,-39.933,27.509
0.057,-0.464,0.767,25.457,-38.711,25.507
0.052,-0.462,0.770,23.802,-37.613,23.723
0.047,-0.463,0.773,21.798,-36.599,22.264
0.043,-0.465,0.775,19.733,-35.562,20.881
0.039,-0.466,0.778,17.601,-34.553,19.370
0.035,-0.467,0.780,15.160,-33.734,17.712
0.031,-0.467,0.783,12.245,-33.100,16.052
0.027,-0.468,0.785,9.112,-32.435,14.430
0.025,-0.472,0.786,6.226,-31.614,12.903
0.022,-0.476,0.786,4.115,-30.584,11.361
0.020,-0.481,0.786,2.598,-29.329,10.047
0.017,-0.487,0.785,1.743,-27.772,8.940
0.015,-0.493,0.785,1.408,-24.818,8.249
0.012,-0.499,0.784,1.559,-22.529,7.760
0.009,-0.505,0.784,2.216,-19.942,7.410
0.006,-0.509,0.783,3.353,-17.150,7.191
0.004,-0.513,0.783,4.952,-14.399,7.024
0.001,-0.516,0.783,6.763,-11.676,6.812
-0.002,-0.519,0.784,8.549,-9.104,6.536
-0.006,-0.520,0.785,10.078,-7.009,6.227
-0.009,-0.521,0.788,11.237,-5.281,5.895
-0.013,-0.521,0.790,12.061,-3.904,5.509
-0.016,-0.521,0.792,12.507,-2.699,5.086
-0.019,-0.522,0.794,12.795,-1.632,4.593
-0.022,-0.521,0.796,12.911,-0.736,4.012
-0.025,-0.520,0.799,12.791,-0.226,3.402
-0.028,-0.519,0.801,12.411,0.007,2.734
-0.031,-0.518,0.802,11.706,0.025,2.005
-0.034,-0.518,0.803,10.728,-0.077,1.276
-0.037,-0.519,0.804,9.729,-0.187,0.627
-0.039,-0.521,0.804,8.914,-0.172,0.184
-0.041,-0.524,0.805,8.412,0.090,-0.166
-0.043,-0.526,0.806,8.131,0.394,-0.454
-0.047,-0.528,0.806,7.937,0.922,-0.616
-0.048,-0.530,0.806,8.086,1.801,-0.637
-0.051,-0.532,0.807,8.396,2.673,-0.593
-0.054,-0.533,0.808,8.764,3.498,-0.604
-0.056,-0.533,0.809,9.098,4.326,-0.641
-0.059,-0.533,0.810,9.378,5.095,-0.688
-0.061,-0.532,0.811,9.573,5.742,-0.753
-0.064,-0.532,0.812,9.694,6.340,-0.824
-0.066,-0.532,0.813,9.774,6.857,-0.921
-0.068,-0.531,0.814,9.782,7.232,-1.045
-0.070,-0.531,0.815,9.718,7.539,-1.185
-0.072,-0.530,0.816,9.593,7.805,-1.322
-0.073,-0.529,0.816,9.404,7.994,-1.453
-0.075,-0.529,0.817,9.147,8.127,-1.577
-0.076,-0.528,0.818,8.773,8.147,-1.716
-0.078,-0.527,0.820,8.208,7.909,-1.894
-0.079,-0.525,0.821,7.408,7.547,-2.122
-0.081,-0.524,0.822,6.445,7.162,-2.391
-0.081,-0.524,0.823,5.345,6.710,-2.710
-0.082,-0.524,0.824,4.231,6.276,-3.047
-0.083,-0.525,0.825,3.141,5.829,-3.399
-0.084,-0.525,0.827,2.095,5.391,-3.775
-0.084,-0.526,0.828,1.110,5.012,-4.137
-0.083,-0.527,0.829,0.243,4.704,-4.454
-0.083,-0.528,0.830,-0.491,4.484,-4.734
-0.082,-0.529,0.831,-1.126,4.352,-4.953
-0.082,-0.530,0.832,-1.647,4.338,-5.123
-0.081,-0.531,0.833,-2.076,4.435,-5.246
-0.081,-0.532,0.833,-2.409,4.598,-5.327
-0.082,-0.533,0.834,-2.662,4.810,-5.397
-0.082,-0.534,0.835,-2.862,5.075,-5.456
-0.082,-0.534,0.836,-3.050,5.365,-5.511
-0.082,-0.535,0.838,-3.234,5.644,-5.580
-0.082,-0.536,0.840,-3.433,5.901,-5.675
-0.082,-0.537,0.841,-3.644,6.134,-5.799
-0.082,-0.538,0.843,-3.857,6.351,-5.935
-0.082,-0.539,0.844,-4.071,6.571,-6.067
-0.082,-0.539,0.845,-4.294,6.802,-6.194
-0.083,-0.540,0.845,-4.522,7.051,-6.294
-0.083,-0.541,0.845,-4.727,7.332,-6.384
-0.083,-0.542,0.845,-4.896,7.696,-6.462
-0.084,-0.543,0.844,-5.033,8.095,-6.530
-0.085,-0.544,0.844,-5.131,8.512,-6.589
-0.086,-0.545,0.844,-5.199,8.955,-6.647
-0.087,-0.546,0.844,-5.253,9.399,-6.707
-0.088,-0.548,0.845,-5.274,9.869,-6.780
-0.089,-0.549,0.845,-5.276,10.344,-6.863
-0.090,-0.551,0.845,-5.217,10.864,-6.965
-0.090,-0.552,0.845,-5.185,11.286,-7.126
-0.091,-0.553,0.846,-5.245,11.722,-7.302
-0.090,-0.554,0.846,-5.267,12.187,-7.347
-0.091,-0.557,0.845,-5.251,12.451,-7.457
-0.090,-0.557,0.844,-5.207,12.776,-7.713
-0.089,-0.558,0.843,-5.158,13.182,-7.915
-0.088,-0.560,0.842,-5.101,13.600,-8.060
-0.089,-0.561,0.842,-5.049,13.996,-8.159
-0.089,-0.563,0.841,-4.989,14.473,-8.206
-0.089,-0.564,0.841,-4.902,14.945,-8.257
-0.090,-0.566,0.840,-4.788,15.453,-8.312
-0.089,-0.568,0.840,-4.673,15.995,-8.353
-0.089,-0.569,0.840,-4.546,16.585,-8.393
-0.089,-0.570,0.840,-4.451,17.055,-8.404
-0.089,-0.571,0.840,-4.392,17.455,-8.373

-0.747,-0.674,-0.468,-8.910,38.146,-8.396
-0.755,-0.672,-0.490,-14.094,54.524,-8.517
-0.765,-0.670,-0.514,-20.040,69.020,-8.901
-0.775,-0.668,-0.540,-26.746,79.278,-9.467
-0.786,-0.666,-0.567,-34.520,86.932,-10.219
-0.797,-0.664,-0.593,-43.154,92.984,-11.145
-0.807,-0.664,-0.615,-52.285,97.498,-12.151
-0.819,-0.665,-0.635,-59.999,100.891,-12.995
-0.831,-0.669,-0.648,-65.437,103.032,-13.693
-0.842,-0.673,-0.655,-69.067,104.708,-14.011
-0.851,-0.674,-0.660,-70.818,105.785,-14.018
-0.855,-0.672,-0.661,-71.389,107.199,-13.879
-0.833,-0.668,-0.647,-71.916,118.911,-13.337
-0.816,-0.659,-0.645,-71.201,125.809,-13.262
-0.814,-0.649,-0.650,-71.170,126.937,-13.902
-0.810,-0.642,-0.660,-71.095,123.728,-15.150
-0.804,-0.637,-0.679,-71.057,119.465,-17.002
-0.797,-0.633,-0.704,-70.926,115.254,-20.290
-0.787,-0.634,-0.736,-70.386,111.306,-24.611
-0.775,-0.640,-0.769,-69.292,105.199,-29.199
-0.760,-0.650,-0.802,-67.651,97.827,-33.707
-0.744,-0.660,-0.831,-64.787,89.229,-37.738
-0.730,-0.667,-0.856,-60.703,78.789,-41.434
-0.714,-0.671,-0.876,-56.056,66.702,-44.772
-0.699,-0.672,-0.894,-51.266,53.093,-47.529
-0.683,-0.672,-0.910,-46.544,38.197,-49.945
-0.669,-0.671,-0.924,-41.784,21.838,-52.074
-0.655,-0.672,-0.938,-36.888,5.263,-54.086
-0.640,-0.674,-0.952,-31.390,-11.549,-56.210
-0.624,-0.677,-0.963,-25.689,-28.658,-58.439
-0.606,-0.682,-0.971,-19.903,-47.111,-60.732
-0.585,-0.690,-0.977,-13.853,-66.630,-63.003
-0.562,-0.702,-0.975,-6.489,-85.621,-66.155
-0.531,-0.715,-0.970,1.565,-102.282,-69.589
-0.497,-0.731,-0.959,10.318,-112.300,-73.560
-0.462,-0.747,-0.945,19.549,-119.867,-75.799
-0.435,-0.763,-0.938,29.728,-132.332,-77.384
-0.418,-0.780,-0.925,40.639,-147.409,-76.642
-0.402,-0.798,-0.916,52.158,-169.855,-75.126
-0.391,-0.809,-0.904,63.803,-199.214,-74.085
-0.374,-0.808,-0.883,73.380,-226.847,-73.425
-0.349,-0.806,-0.853,81.630,-246.162,-72.444
-0.326,-0.811,-0.823,90.051,-264.646,-71.098
-0.308,-0.821,-0.800,100.246,-283.669,-68.609
-0.293,-0.831,-0.778,111.025,-299.039,-64.196
-0.274,-0.838,-0.758,121.899,-308.239,-58.508
-0.253,-0.842,-0.740,132.267,-311.038,-54.485
-0.229,-0.838,-0.725,140.934,-309.942,-52.619
-0.206,-0.831,-0.708,147.916,-307.065,-51.146
-0.184,-0.828,-0.685,154.727,-303.367,-49.272
-0.166,-0.828,-0.658,163.500,-300.206,-47.994
-0.149,-0.822,-0.623,170.980,-299.750,-47.027
-0.132,-0.813,-0.570,175.768,-298.031,-46.070
-0.108,-0.803,-0.510,177.121,-291.629,-44.281
-0.086,-0.792,-0.451,176.200,-285.417,-42.721
-0.072,-0.776,-0.392,172.703,-278.831,-40.803
-0.056,-0.758,-0.339,168.205,-271.928,-39.355
-0.045,-0.739,-0.290,163.778,-264.897,-36.138
-0.041,-0.724,-0.252,159.081,-258.210,-32.753
-0.036,-0.709,-0.228,154.272,-251.332,-29.470
-0.030,-0.696,-0.207,149.493,-244.754,-25.592
-0.029,-0.686,-0.188,145.089,-238.484,-22.575
-0.024,-0.676,-0.167,141.192,-232.525,-20.807
-0.016,-0.668,-0.142,137.716,-226.837,-20.014
-0.007,-0.661,-0.114,134.317,-221.424,-19.957
0.001,-0.655,-0.084,130.994,-216.232,-20.224
0.008,-0.649,-0.052,127.738,-211.263,-20.812
0.015,-0.643,-0.021,124.568,-206.468,-21.666
0.023,-0.635,0.010,121.527,-201.800,-22.353
0.030,-0.630,0.039,118.563,-197.273,-22.336
0.036,-0.629,0.067,115.631,-193.065,-21.791
0.041,-0.631,0.093,112.915,-188.656,-20.419
0.044,-0.633,0.117,110.549,-183.040,-18.675
0.047,-0.633,0.140,108.351,-177.433,-17.200
0.052,-0.631,0.161,106.099,-172.628,-16.298
0.055,-0.628,0.179,103.653,-168.752,-15.722
0.058,-0.626,0.197,101.198,-165.501,-15.435
0.062,-0.627,0.213,98.801,-162.289,-15.292
0.066,-0.629,0.230,96.507,-159.211,-15.145
0.070,-0.632,0.247,94.422,-155.779,-14.947
0.075,-0.636,0.264,92.678,-151.767,-14.591
0.079,-0.639,0.284,91.140,-147.260,-14.078
0.082,-0.640,0.304,89.687,-142.458,-13.395
0.084,-0.641,0.324,88.195,-137.393,-12.537
0.085,-0.641,0.343,86.614,-132.463,-11.606
0.086,-0.641,0.362,84.930,-127.707,-10.644
0.086,-0.642,0.379,83.137,-123.018,-9.640
0.086,-0.643,0.394,81.317,-118.408,-8.580
0.086,-0.645,0.409,79.502,-113.989,-7.547
0.085,-0.647,0.422,77.713,-109.854,-6.539
0.085,-0.649,0.435,75.959,-105.972,-5.566
0.083,-0.652,0.446,74.233,-102.254,-4.645
0.082,-0.654,0.457,72.561,-98.641,-3.760
0.081,-0.657,0.468,70.958,-95.098,-2.921
0.080,-0.659,0.479,69.428,-91.642,-2.151
0.078,-0.661,0.490,67.953,-88.326,-1.471
0.076,-0.662,0.500,66.486,-85.214,-1.120
0.074,-0.661,0.511,64.980,-82.513,-1.160
0.072,-0.659,0.522,63.012,-80.360,-1.322
0.070,-0.658,0.531,60.698,-78.174,-1.357
0.068,-0.660,0.541,58.438,-76.307,-1.432
0.065,-0.662,0.549,56.193,-74.623,-1.564
0.064,-0.662,0.557,53.923,-72.887,-1.627
0.063,-0.664,0.563,51.703,-71.198,-1.573
0.060,-0.666,0.569,49.726,-69.471,-1.441
0.059,-0.668,0.573,48.125,-67.511,-1.287
0.057,-0.671,0.578,46.953,-65.182,-1.006
0.055,-0.674,0.583,46.089,-62.457,-0.477
0.052,-0.678,0.588,45.424,-59.511,0.107
0.049,-0.680,0.594,44.838,-56.596,0.675
0.046,-0.680,0.601,44.201,-53.837,1.231
0.043,-0.679,0.607,43.440,-51.459,1.739
0.040,-0.678,0.612,42.536,-49.494,2.219
0.036,-0.677,0.617,41.335,-47.884,2.563
0.032,-0.676,0.622,39.658,-46.547,2.743
0.029,-0.675,0.626,37.735,-45.423,2.790
0.026,-0.675,0.630,35.636,-44.490,2.711
0.023,-0.674,0.632,33.401,-43.689,2.606
0.019,-0.675,0.634,31.111,-42.917,2.475
0.016,-0.676,0.636,28.941,-42.126,2.314
0.014,-0.677,0.637,26.925,-41.338,2.118
0.011,-0.678,0.639,25.084,-40.534,1.930
0.009,-0.680,0.640,23.413,-39.683,1.762
0.006,-0.682,0.642,21.953,-38.805,1.584
0.004,-0.684,0.644,20.657,-37.868,1.423
0.002,-0.686,0.645,19.527,-36.880,1.294
-0.001,-0.688,0.647,18.501,-35.849,1.201
-0.003,-0.690,0.648,17.637,-34.778,1.188
-0.004,-0.691,0.650,16.900,-33.669,1.198
-0.006,-0.693,0.651,16.233,-32.495,1.255
-0.008,-0.695,0.652,15.593,-31.195,1.381
-0.010,-0.697,0.652,15.056,-29.794,1.541
-0.011,-0.699,0.652,14.668,-28.285,1.766
-0.013,-0.701,0.653,14.475,-26.718,2.058
-0.015,-0.704,0.653,14.416,-25.097,2.394
-0.017,-0.707,0.654,14.515,-23.402,2.739
-0.020,-0.710,0.656,14.710,-21.794,3.092
-0.022,-0.711,0.657,14.948,-20.259,3.373
-0.024,-0.712,0.660,15.180,-18.873,3.592
-0.026,-0.712,0.662,15.289,-17.701,3.777
-0.028,-0.711,0.664,15.243,-16.745,3.930
-0.030,-0.710,0.666,15.055,-15.972,4.068
-0.033,-0.709,0.668,14.747,-15.284,4.201
-0.035,-0.708,0.669,13.689,-14.642,4.319
-0.037,-0.708,0.671,13.280,-14.060,4.398
-0.039,-0.708,0.671,12.867,-13.509,4.442
-0.041,-0.708,0.671,12.459,-13.003,4.471
-0.043,-0.708,0.671,12.104,-12.463,4.526
-0.046,-0.709,0.672,11.854,-11.860,4.618
-0.048,-0.711,0.672,11.733,-11.216,4.777
-0.050,-0.712,0.673,11.707,-10.495,4.978
-0.051,-0.713,0.674,11.771,-9.730,5.231
-0.053,-0.713,0.676,11.865,-8.848,5.571
-0.055,-0.713,0.677,11.957,-7.923,5.975
-0.057,-0.712,0.678,11.986,-7.060,6.462
-0.059,-0.710,0.680,11.863,-6.230,6.953
-0.061,-0.708,0.681,11.609,-5.497,7.404
-0.063,-0.706,0.682,11.188,-4.902,7.806
-0.065,-0.704,0.683,10.607,-4.476,8.143
-0.067,-0.702,0.683,9.880,-4.128,8.409
-0.069,-0.701,0.684,9.043,-3.839,8.585
-0.070,-0.700,0.684,8.211,-3.619,8.685
-0.072,-0.700,0.684,7.409,-3.428,8.735
-0.073,-0.700,0.685,6.648,-3.278,8.710
-0.074,-0.699,0.685,5.911,-3.198,8.642
-0.076,-0.699,0.686,5.174,-3.158,8.552
-0.077,-0.699,0.686,4.505,-3.129,8.418
-0.078,-0.698,0.686,3.902,-3.107,8.275
-0.079,-0.698,0.686,3.343,-3.034,8.134
-0.079,-0.697,0.686,2.796,-2.949,7.982
-0.081,-0.696,0.687,2.236,-2.871,7.812
-0.082,-0.695,0.688,1.625,-2.845,7.621
-0.083,-0.695,0.689,0.977,-2.836,7.433
-0.084,-0.695,0.689,0.348,-2.845,7.238
-0.086,-0.695,0.689,-0.222,-2.846,7.026
-0.087,-0.695,0.690,-0.711,-2.829,6.810
-0.088,-0.696,0.690,-1.089,-2.784,6.556
-0.089,-0.697,0.690,-1.380,-2.715,6.289
-0.090,-0.698,0.691,-1.582,-2.589,6.015
-0.091,-0.699,0.692,-1.718,-2.403,5.721
-0.092,-0.700,0.693,-1.819,-2.188,5.424
-0.092,-0.701,0.692,-1.918,-1.925,5.160
-0.093,-0.702,0.692,-2.021,-1.615,4.927
-0.093,-0.703,0.691,-2.109,-1.247,4.721
-0.093,-0.704,0.690,-2.159,-0.851,4.554
-0.093,-0.705,0.691,-2.157,-0.418,4.421
-0.093,-0.705,0.691,-2.136,0.020,4.283
-0.094,-0.706,0.692,-2.137,0.412,4.118
-0.095,-0.707,0.694,-2.136,0.837,3.979
-0.097,-0.708,0.695,-2.131,1.260,3.800
-0.098,-0.709,0.696,-2.116,1.715,3.585
-0.099,-0.710,0.697,-2.152,2.203,3.356
-0.099,-0.712,0.699,-2.219,2.741,3.118
-0.098,-0.713,0.700,-2.298,3.350,2.875
-0.097,-0.715,0.702,-2.403,4.055,2.622
-0.097,-0.716,0.703,-2.537,4.817,2.365
-0.096,-0.717,0.704,-2.684,5.611,2.142
-0.096,-0.718,0.704,-2.805,6.474,1.950
-0.096,-0.720,0.704,-2.901,7.419,1.776

-0.670,-0.570,-0.674,-13.897,36.095,-0.023
-0.681,-0.572,-0.709,-25.904,56.575,-2.405
-0.692,-0.574,-0.744,-39.005,71.814,-5.612
-0.702,-0.573,-0.779,-51.940,84.531,-9.273
-0.713,-0.572,-0.810,-64.286,94.280,-13.227
-0.725,-0.573,-0.834,-75.474,101.743,-17.187
-0.736,-0.578,-0.850,-84.667,107.261,-20.268
-0.746,-0.585,-0.859,-90.719,111.749,-22.003
-0.753,-0.595,-0.861,-94.058,114.398,-22.912
-0.756,-0.603,-0.863,-95.395,114.911,-23.325
-0.752,-0.609,-0.863,-94.936,113.052,-23.463
-0.740,-0.614,-0.863,-93.989,110.052,-23.211
-0.708,-0.617,-0.854,-93.234,113.187,-22.753
-0.684,-0.611,-0.869,-92.127,111.843,-23.189
-0.672,-0.605,-0.891,-90.452,108.210,-26.141
-0.658,-0.602,-0.915,-88.397,104.367,-30.288
-0.642,-0.600,-0.942,-86.241,97.322,-35.367
-0.626,-0.597,-0.971,-84.051,86.939,-41.196
-0.609,-0.598,-0.999,-81.864,73.578,-47.217
-0.592,-0.606,-1.022,-79.687,57.474,-52.446
-0.575,-0.616,-1.039,-77.563,38.550,-56.636
-0.558,-0.627,-1.054,-75.341,19.899,-60.387
-0.542,-0.636,-1.067,-72.992,2.041,-63.715
-0.525,-0.642,-1.081,-70.948,-15.051,-66.977
-0.507,-0.647,-1.093,-69.056,-31.127,-70.213
-0.488,-0.651,-1.104,-67.204,-46.085,-74.914
-0.468,-0.656,-1.115,-64.337,-60.347,-78.237
-0.447,-0.660,-1.123,-59.658,-73.537,-82.428
-0.424,-0.665,-1.126,-53.372,-86.683,-86.688
-0.398,-0.673,-1.119,-44.099,-97.277,-90.182
-0.369,-0.686,-1.103,-34.208,-106.533,-92.788
-0.347,-0.694,-1.084,-23.482,-122.838,-96.129
-0.329,-0.707,-1.059,-12.823,-142.368,-95.785
-0.315,-0.729,-1.037,-3.220,-172.483,-94.519
-0.303,-0.737,-1.013,4.570,-209.382,-94.025
-0.288,-0.737,-0.982,9.890,-237.952,-94.982
-0.261,-0.738,-0.951,13.213,-251.745,-98.935
-0.231,-0.740,-0.923,16.087,-256.460,-107.015
-0.201,-0.746,-0.897,19.807,-258.949,-109.232
-0.181,-0.767,-0.877,25.891,-264.489,-112.330
-0.158,-0.780,-0.849,38.037,-268.357,-114.629
-0.133,-0.794,-0.819,53.409,-269.118,-113.756
-0.113,-0.812,-0.794,71.513,-273.868,-111.500
-0.102,-0.829,-0.772,90.958,-282.516,-109.040
-0.088,-0.838,-0.753,107.175,-292.329,-106.814
-0.070,-0.841,-0.732,118.024,-298.935,-104.943
-0.043,-0.846,-0.716,125.437,-298.462,-102.902
-0.015,-0.857,-0.704,133.235,-296.459,-100.697
0.009,-0.870,-0.692,144.755,-296.465,-98.434
0.030,-0.877,-0.676,157.494,-298.043,-95.767
0.055,-0.874,-0.649,168.798,-296.868,-93.632
0.080,-0.860,-0.617,177.006,-294.181,-91.711
0.099,-0.839,-0.583,178.940,-293.164,-89.241
0.114,-0.829,-0.542,180.628,-288.151,-83.958
0.128,-0.823,-0.499,182.940,-283.213,-76.129
0.136,-0.819,-0.451,184.791,-278.846,-66.792
0.146,-0.807,-0.402,184.879,-275.200,-59.127
0.160,-0.786,-0.354,181.414,-267.767,-51.634
0.177,-0.770,-0.307,176.874,-260.575,-43.266
0.182,-0.761,-0.261,172.057,-253.974,-34.835
0.185,-0.754,-0.221,167.447,-247.713,-27.239
0.190,-0.746,-0.185,163.191,-241.611,-21.539
0.195,-0.738,-0.152,158.546,-235.799,-18.329
0.198,-0.730,-0.121,152.955,-230.288,-16.152
0.200,-0.723,-0.092,147.075,-224.996,-14.810
0.202,-0.717,-0.064,141.163,-220.048,-14.186
0.202,-0.711,-0.037,135.055,-215.504,-14.136
0.202,-0.703,-0.009,128.053,-211.252,-14.526
0.202,-0.696,0.018,120.167,-207.398,-14.773
0.201,-0.695,0.045,112.496,-203.016,-14.579
0.202,-0.701,0.070,106.595,-198.635,-13.768
0.204,-0.711,0.094,102.973,-194.339,-12.301
0.207,-0.719,0.116,100.590,-190.357,-10.592
0.210,-0.723,0.137,98.416,-186.318,-8.967
0.213,-0.722,0.156,96.384,-181.347,-7.165
0.213,-0.722,0.174,94.589,-175.371,-4.956
0.212,-0.725,0.190,93.451,-167.862,-2.553
0.210,-0.728,0.206,93.567,-159.486,-0.253
0.207,-0.727,0.223,94.150,-151.116,1.742
0.203,-0.723,0.239,94.544,-143.493,3.103
0.200,-0.718,0.256,94.431,-137.086,3.734
0.197,-0.712,0.273,93.675,-131.511,3.899
0.193,-0.707,0.291,92.282,-126.768,3.885
0.187,-0.703,0.309,90.444,-122.854,3.830
0.181,-0.701,0.325,88.417,-119.400,3.716
0.177,-0.701,0.340,86.414,-115.944,3.560
0.174,-0.702,0.354,84.457,-112.270,3.416
0.170,-0.703,0.367,82.532,-108.714,3.306
0.166,-0.703,0.379,80.294,-105.623,3.195
0.162,-0.703,0.389,77.628,-102.879,3.063
0.158,-0.703,0.397,74.759,-100.099,2.977
0.155,-0.705,0.404,72.405,-96.873,3.059
0.151,-0.710,0.410,70.818,-92.792,3.455
0.147,-0.716,0.417,69.577,-87.585,4.212
0.143,-0.721,0.425,68.793,-81.527,5.231
0.138,-0.723,0.434,68.289,-75.426,6.334
0.133,-0.725,0.443,67.817,-69.649,7.428
0.128,-0.724,0.452,67.227,-64.516,8.195
0.123,-0.722,0.462,66.295,-60.195,8.645
0.118,-0.719,0.471,65.121,-56.603,8.786
0.113,-0.718,0.479,63.825,-53.277,8.523
0.110,-0.715,0.486,62.211,-51.826,7.767
0.103,-0.712,0.493,60.012,-49.625,6.993
0.100,-0.713,0.498,57.772,-47.321,6.496
0.094,-0.716,0.503,55.584,-46.129,6.019
0.088,-0.717,0.508,53.184,-45.285,5.658
0.084,-0.718,0.511,50.841,-44.098,5.407
0.082,-0.719,0.515,48.764,-42.758,5.194
0.078,-0.722,0.518,47.068,-41.132,5.064
0.075,-0.725,0.522,45.970,-38.869,4.991
0.072,-0.728,0.526,45.323,-36.040,4.890
0.069,-0.729,0.531,44.782,-33.134,4.762
0.065,-0.729,0.536,44.142,-30.256,4.716
0.060,-0.729,0.542,43.386,-27.681,4.745
0.055,-0.728,0.547,42.530,-25.667,4.821
0.051,-0.728,0.552,41.432,-24.185,4.893
0.047,-0.727,0.556,39.962,-23.164,4.940
0.043,-0.725,0.560,37.069,-22.445,4.935
0.040,-0.725,0.564,34.828,-21.932,4.780
0.037,-0.725,0.567,32.487,-21.471,4.496
0.034,-0.725,0.569,30.162,-21.021,4.164
0.030,-0.726,0.572,27.875,-20.651,3.792
0.027,-0.727,0.574,25.655,-20.350,3.342
0.025,-0.727,0.576,23.494,-20.028,2.858
0.022,-0.728,0.578,21.395,-19.756,2.464
0.019,-0.729,0.580,19.378,-19.520,2.118
0.016,-0.730,0.581,17.483,-19.264,1.835
0.013,-0.731,0.583,15.711,-18.957,1.665
0.009,-0.732,0.584,14.123,-18.565,1.596
0.006,-0.734,0.585,12.710,-18.119,1.596
0.003,-0.735,0.586,11.464,-17.565,1.647
0.000,-0.737,0.586,11.089,-16.887,1.771
-0.002,-0.739,0.586,10.318,-16.083,1.925
-0.005,-0.740,0.587,9.775,-15.128,2.088
-0.007,-0.742,0.587,9.408,-14.053,2.219
-0.009,-0.743,0.588,9.122,-12.950,2.337
-0.012,-0.744,0.588,8.864,-11.835,2.467
-0.015,-0.746,0.589,8.700,-10.657,2.588
-0.017,-0.748,0.589,8.592,-9.462,2.684
-0.020,-0.749,0.589,8.477,-8.331,2.816
-0.024,-0.751,0.590,8.389,-7.151,2.942
-0.027,-0.752,0.590,8.372,-5.981,2.942
-0.029,-0.753,0.591,8.369,-4.888,2.858
-0.032,-0.754,0.591,8.326,-3.908,2.737
-0.034,-0.755,0.591,8.267,-3.002,2.559
-0.036,-0.755,0.592,8.239,-2.087,2.340
-0.039,-0.756,0.592,8.232,-1.234,2.137
-0.041,-0.756,0.592,8.220,-0.432,1.968
-0.044,-0.757,0.592,8.200,0.298,1.809
-0.046,-0.758,0.592,8.148,0.956,1.657
-0.048,-0.759,0.592,8.072,1.555,1.485
-0.050,-0.760,0.592,7.997,2.061,1.295
-0.052,-0.761,0.592,7.924,2.497,1.095
-0.054,-0.763,0.592,7.860,2.883,0.888
-0.057,-0.764,0.593,7.829,3.244,0.669
-0.059,-0.766,0.593,7.825,3.627,0.454
-0.061,-0.767,0.593,7.842,4.013,0.244
-0.063,-0.769,0.594,7.865,4.376,0.053
-0.065,-0.770,0.594,7.881,4.711,-0.114
-0.067,-0.771,0.595,7.874,5.008,-0.256
-0.069,-0.772,0.596,7.840,5.258,-0.379
-0.071,-0.773,0.597,7.783,5.480,-0.479
-0.074,-0.774,0.597,7.711,5.672,-0.568
-0.076,-0.775,0.598,7.632,5.803,-0.650
-0.078,-0.776,0.598,7.536,5.854,-0.728
-0.080,-0.777,0.598,7.414,5.844,-0.801
-0.082,-0.778,0.599,7.255,5.766,-0.891
-0.084,-0.779,0.599,7.052,5.661,-0.983
-0.085,-0.780,0.599,6.816,5.516,-1.070
-0.087,-0.780,0.599,6.556,5.330,-1.150
-0.088,-0.781,0.599,6.256,5.085,-1.218
-0.090,-0.781,0.600,5.894,4.815,-1.284
-0.091,-0.782,0.600,5.489,4.531,-1.343
-0.093,-0.782,0.601,5.066,4.252,-1.408
-0.094,-0.783,0.601,4.618,3.958,-1.467
-0.096,-0.783,0.601,4.150,3.664,-1.517
-0.097,-0.784,0.601,3.689,3.384,-1.560
-0.098,-0.784,0.602,3.250,3.105,-1.589
-0.099,-0.785,0.602,2.867,2.833,-1.607
-0.100,-0.786,0.602,2.534,2.586,-1.615
-0.101,-0.787,0.602,2.233,2.346,-1.607
-0.102,-0.788,0.602,1.952,2.109,-1.595
-0.103,-0.788,0.602,1.690,1.869,-1.574
-0.103,-0.789,0.603,1.431,1.636,-1.539
-0.103,-0.789,0.603,1.172,1.414,-1.503
-0.103,-0.790,0.603,0.934,1.214,-1.471
-0.103,-0.790,0.603,0.711,1.031,-1.447
-0.103,-0.790,0.603,0.500,0.851,-1.422
-0.103,-0.790,0.604,0.300,0.672,-1.397
-0.102,-0.790,0.605,0.092,0.504,-1.362
-0.102,-0.790,0.605,-0.123,0.345,-1.315
-0.101,-0.790,0.606,-0.327,0.212,-1.247
-0.100,-0.791,0.606,-0.523,0.106,-1.152
-0.099,-0.791,0.607,-0.728,0.007,-1.061
-0.098,-0.791,0.607,-1.001,-0.121,-0.946
-0.096,-0.791,0.607,-1.292,-0.177,-0.764
-0.095,-0.792,0.608,-1.564,-0.227,-0.638
-0.093,-0.792,0.608,-1.807,-0.260,-0.508
-0.091,-0.792,0.608,-2.002,-0.274,-0.361

-0.871,-0.369,-0.655,-15.596,34.671,-1.041
-0.870,-0.366,-0.696,-28.364,62.276,-2.328
-0.869,-0.368,-0.742,-39.152,84.113,-5.402
-0.867,-0.375,-0.790,-46.860,101.334,-8.351
-0.866,-0.380,-0.837,-53.119,115.120,-11.866
-0.868,-0.382,-0.880,-58.763,126.316,-15.747
-0.873,-0.385,-0.918,-64.376,134.635,-19.987
-0.879,-0.394,-0.947,-69.615,140.453,-24.104
-0.885,-0.409,-0.966,-73.321,144.284,-27.112
-0.889,-0.428,-0.969,-74.915,145.716,-28.905
-0.892,-0.446,-0.965,-73.748,143.756,-30.010
-0.890,-0.462,-0.956,-71.775,139.188,-31.675
-0.878,-0.471,-0.939,-69.715,133.962,-33.489
-0.860,-0.472,-0.921,-67.816,128.411,-34.675
-0.773,-0.462,-0.883,-67.031,129.248,-39.239
-0.749,-0.457,-0.885,-66.693,124.518,-47.603
-0.736,-0.461,-0.899,-65.919,115.672,-59.695
-0.716,-0.467,-0.917,-65.179,101.594,-73.355
-0.694,-0.471,-0.937,-64.929,83.517,-89.607
-0.668,-0.479,-0.958,-65.190,63.150,-106.490
-0.641,-0.492,-0.973,-65.362,41.276,-122.497
-0.611,-0.507,-0.983,-64.794,19.374,-135.724
-0.576,-0.526,-0.990,-63.112,-2.166,-146.003
-0.538,-0.547,-0.995,-60.409,-23.611,-154.405
-0.498,-0.570,-0.993,-54.872,-41.509,-160.914
-0.455,-0.596,-0.986,-44.788,-53.466,-167.038
-0.411,-0.617,-0.975,-30.711,-65.547,-172.539
-0.376,-0.640,-0.955,-16.225,-79.675,-174.769
-0.335,-0.667,-0.928,-0.522,-92.431,-173.969
-0.298,-0.696,-0.901,18.777,-101.379,-170.170
-0.267,-0.719,-0.881,38.355,-109.408,-166.013
-0.246,-0.732,-0.872,56.467,-121.597,-161.828
-0.224,-0.740,-0.871,72.972,-133.068,-157.830
-0.199,-0.748,-0.876,90.470,-141.820,-153.913
-0.174,-0.760,-0.882,109.463,-150.308,-150.081
-0.153,-0.774,-0.883,129.629,-165.725,-145.190
-0.136,-0.794,-0.880,151.854,-186.982,-135.243
-0.117,-0.814,-0.868,176.443,-210.410,-124.857
-0.095,-0.826,-0.843,195.744,-231.629,-115.297
-0.070,-0.830,-0.801,206.262,-246.005,-106.464
-0.045,-0.829,-0.757,209.233,-253.113,-96.533
-0.022,-0.831,-0.715,209.699,-253.958,-88.551
-0.002,-0.825,-0.677,208.228,-252.155,-84.714
0.009,-0.810,-0.645,204.335,-252.474,-80.513
0.018,-0.801,-0.612,199.823,-248.445,-75.220
0.031,-0.798,-0.585,195.304,-244.504,-68.068
0.029,-0.798,-0.565,191.048,-247.213,-63.376
0.028,-0.789,-0.540,186.330,-253.489,-59.287
0.036,-0.782,-0.509,181.516,-255.659,-54.429
0.045,-0.786,-0.476,177.250,-253.970,-45.535
0.050,-0.796,-0.442,173.872,-253.472,-38.372
0.057,-0.798,-0.401,170.778,-251.190,-31.173
0.068,-0.796,-0.360,167.573,-247.737,-23.520
0.076,-0.790,-0.319,163.879,-244.875,-16.989
0.081,-0.779,-0.279,159.838,-242.723,-11.673
0.087,-0.766,-0.240,155.744,-239.809,-7.427
0.096,-0.753,-0.207,151.800,-234.605,-4.670
0.103,-0.739,-0.176,148.052,-229.360,-3.325
0.107,-0.727,-0.146,143.769,-224.522,-3.187
0.109,-0.714,-0.117,137.806,-220.251,-3.548
0.111,-0.701,-0.090,129.277,-217.800,-4.439
0.113,-0.691,-0.065,118.873,-216.071,-5.618
0.118,-0.686,-0.041,108.495,-214.079,-6.337
0.125,-0.692,-0.018,100.921,-210.643,-6.581
0.133,-0.703,0.005,96.807,-206.173,-6.380
0.139,-0.712,0.030,94.634,-201.613,-5.567
0.143,-0.718,0.056,92.750,-197.391,-3.744
0.144,-0.720,0.081,91.786,-193.316,-0.970
0.144,-0.718,0.106,90.499,-188.497,1.790
0.144,-0.714,0.129,89.248,-183.043,4.536
0.142,-0.709,0.151,87.995,-177.323,6.918
0.141,-0.706,0.171,86.690,-172.130,8.268
0.140,-0.701,0.189,85.282,-167.128,9.064
0.138,-0.698,0.205,83.813,-162.021,9.656
0.136,-0.699,0.220,82.519,-156.369,9.927
0.135,-0.702,0.235,81.440,-150.399,9.852
0.133,-0.702,0.250,80.362,-144.336,9.671
0.130,-0.702,0.265,79.172,-138.286,9.463
0.126,-0.703,0.281,77.863,-132.618,9.279
0.122,-0.705,0.296,76.479,-127.343,9.162
0.117,-0.707,0.311,75.032,-122.529,9.203
0.112,-0.709,0.325,73.548,-118.094,9.491
0.107,-0.711,0.339,72.079,-113.721,10.006
0.103,-0.714,0.352,70.706,-108.623,10.668
0.099,-0.718,0.364,69.513,-102.887,11.405
0.096,-0.721,0.375,68.530,-96.743,12.084
0.092,-0.723,0.385,67.678,-90.425,12.365
0.088,-0.722,0.394,66.760,-84.286,11.962
0.085,-0.717,0.403,65.516,-80.156,11.279
0.081,-0.715,0.411,64.024,-75.295,10.463
0.079,-0.717,0.417,62.460,-70.266,9.542
0.073,-0.720,0.423,60.853,-66.442,8.675
0.067,-0.723,0.428,59.119,-63.321,8.015
0.062,-0.726,0.434,57.250,-60.608,7.557
0.057,-0.730,0.441,55.365,-58.236,7.139
0.053,-0.732,0.447,53.466,-56.168,6.697
0.050,-0.735,0.453,51.657,-53.593,6.417
0.047,-0.740,0.458,50.127,-50.651,6.405
0.042,-0.745,0.464,49.014,-47.744,6.542
0.038,-0.749,0.469,48.092,-44.779,6.755
0.035,-0.751,0.474,47.192,-41.758,6.967
0.031,-0.752,0.479,46.200,-38.929,7.053
0.027,-0.752,0.482,44.990,-36.880,6.981
0.022,-0.752,0.484,43.394,-35.854,6.781
0.017,-0.752,0.486,41.390,-35.374,6.501
0.013,-0.753,0.489,39.052,-35.193,6.058
0.010,-0.753,0.492,36.225,-35.178,5.417
0.006,-0.753,0.496,33.252,-35.036,4.841
0.004,-0.755,0.499,30.478,-34.712,4.336
0.000,-0.759,0.502,28.036,-34.254,3.808
-0.003,-0.761,0.505,25.825,-33.709,3.255
-0.006,-0.762,0.507,23.704,-33.136,2.691
-0.009,-0.762,0.509,21.591,-32.601,2.083
-0.012,-0.762,0.511,19.514,-32.103,1.482
-0.015,-0.764,0.512,17.576,-31.571,0.943
-0.017,-0.766,0.512,15.917,-30.858,0.509
-0.019,-0.769,0.512,14.643,-29.949,0.227
-0.021,-0.773,0.511,13.890,-28.790,0.072
-0.023,-0.776,0.511,13.444,-27.401,-0.003
-0.024,-0.779,0.511,13.212,-25.735,-0.023
-0.027,-0.781,0.512,13.127,-23.973,-0.020
-0.029,-0.783,0.514,13.122,-22.079,0.077
-0.031,-0.785,0.516,13.261,-20.019,0.314
-0.033,-0.787,0.517,13.547,-17.764,0.649
-0.035,-0.789,0.519,13.924,-15.449,0.941
-0.038,-0.790,0.521,14.264,-13.318,1.118
-0.041,-0.790,0.522,14.412,-11.530,1.198
-0.044,-0.789,0.523,14.262,-10.147,1.132
-0.047,-0.789,0.524,13.950,-9.028,0.987
-0.050,-0.790,0.525,13.571,-8.063,0.773
-0.053,-0.791,0.525,13.192,-7.191,0.525
-0.055,-0.793,0.525,12.875,-6.380,0.235
-0.057,-0.795,0.525,12.642,-5.553,-0.108
-0.059,-0.796,0.525,12.474,-4.741,-0.467
-0.062,-0.798,0.526,12.342,-3.937,-0.810
-0.064,-0.799,0.527,12.238,-3.181,-1.098
-0.066,-0.801,0.528,12.186,-2.410,-1.343
-0.067,-0.802,0.529,12.226,-1.595,-1.533
-0.069,-0.804,0.530,12.340,-0.736,-1.671
-0.070,-0.806,0.531,12.465,0.165,-1.750
-0.072,-0.807,0.532,12.544,1.054,-1.756
-0.074,-0.808,0.534,12.569,1.889,-1.705
-0.076,-0.809,0.535,12.536,2.638,-1.631
-0.078,-0.810,0.536,12.440,3.310,-1.553
-0.080,-0.810,0.537,12.305,3.909,-1.485
-0.082,-0.811,0.537,12.130,4.438,-1.440
-0.084,-0.811,0.538,11.930,4.848,-1.439
-0.086,-0.812,0.538,11.673,5.149,-1.475
-0.087,-0.812,0.539,11.335,5.334,-1.554
-0.089,-0.813,0.539,10.943,5.405,-1.655
-0.091,-0.814,0.539,10.517,5.387,-1.773
-0.093,-0.815,0.540,10.072,5.278,-1.894
-0.095,-0.815,0.540,9.587,5.105,-2.024
-0.096,-0.816,0.540,9.023,4.898,-2.162
-0.098,-0.817,0.541,8.437,4.683,-2.314
-0.100,-0.817,0.541,7.817,4.441,-2.455
-0.101,-0.818,0.542,7.170,4.174,-2.600
-0.102,-0.819,0.543,6.521,3.934,-2.725
-0.103,-0.820,0.543,5.905,3.700,-2.844
-0.104,-0.821,0.543,5.312,3.463,-2.950
-0.105,-0.821,0.542,4.768,3.225,-3.029
-0.106,-0.822,0.542,4.278,2.971,-3.091
-0.107,-0.823,0.541,3.853,2.717,-3.139
-0.107,-0.825,0.541,3.495,2.466,-3.178
-0.108,-0.826,0.541,3.175,2.226,-3.202
-0.109,-0.826,0.541,2.908,1.990,-3.212
-0.109,-0.827,0.542,2.668,1.779,-3.216
-0.110,-0.827,0.542,2.469,1.587,-3.218
-0.110,-0.828,0.542,2.260,1.419,-3.215
-0.111,-0.828,0.543,2.040,1.273,-3.205
-0.111,-0.828,0.544,1.794,1.114,-3.201
-0.112,-0.828,0.544,1.532,0.971,-3.194
-0.112,-0.828,0.544,1.269,0.832,-3.171
-0.112,-0.828,0.544,1.023,0.712,-3.133
-0.112,-0.828,0.544,0.815,0.592,-3.098
-0.112,-0.828,0.545,0.630,0.510,-3.058
-0.113,-0.829,0.545,0.439,0.428,-3.023
-0.114,-0.829,0.545,0.286,0.375,-2.993
-0.114,-0.830,0.544,0.200,0.364,-2.948
-0.114,-0.830,0.544,0.198,0.395,-2.896
-0.114,-0.830,0.543,0.269,0.450,-2.853
-0.114,-0.830,0.543,0.409,0.535,-2.830
-0.115,-0.831,0.544,0.576,0.670,-2.809
-0.115,-0.831,0.544,0.725,0.836,-2.787
-0.115,-0.831,0.545,0.838,0.990,-2.744
-0.116,-0.831,0.545,0.931,1.141,-2.716
-0.116,-0.830,0.546,0.985,1.249,-2.707
-0.116,-0.830,0.546,0.973,1.300,-2.697
-0.115,-0.829,0.547,0.895,1.320,-2.698
-0.115,-0.829,0.547,0.783,1.339,-2.717
-0.114,-0.829,0.548,0.650,1.331,-2.736
-0.114,-0.830,0.548,0.525,1.289,-2.750
-0.113,-0.831,0.549,0.435,1.272,-2.759
-0.112,-0.832,0.549,0.373,1.301,-2.762
-0.112,-0.833,0.549,0.336,1.334,-2.732
-0.111,-0.834,0.549,0.314,1.366,-2.657
-0.111,-0.835,0.548,0.292,1.405,-2.534
-0.110,-0.836,0.548,0.272,1.426,-2.374
-0.109,-0.836,0.548,0.256,1.438,-2.185

-0.792,-0.870,-0.220,0.348,25.579,-2.749
-0.803,-0.867,-0.234,0.256,44.705,-3.356
-0.813,-0.862,-0.251,-0.180,60.366,-3.993
-0.821,-0.856,-0.269,-1.208,74.324,-4.688
-0.828,-0.850,-0.289,-3.881,86.340,-5.409
-0.837,-0.844,-0.310,-8.280,95.476,-6.151
-0.845,-0.839,-0.337,-15.172,102.590,-6.935
-0.854,-0.835,-0.366,-26.040,108.019,-8.034
-0.861,-0.834,-0.396,-34.434,112.694,-9.656
-0.865,-0.837,-0.427,-40.880,113.929,-11.565
-0.868,-0.843,-0.450,-45.332,114.070,-13.561
-0.869,-0.849,-0.465,-47.299,113.547,-15.444
-0.866,-0.853,-0.473,-48.029,112.909,-16.939
-0.843,-0.857,-0.469,-48.121,119.700,-17.631
-0.824,-0.860,-0.473,-47.851,125.090,-18.069
-0.811,-0.859,-0.478,-47.985,126.740,-18.860
-0.796,-0.858,-0.488,-48.649,125.086,-19.877
-0.781,-0.859,-0.507,-49.736,121.064,-21.331
-0.762,-0.862,-0.533,-50.773,116.653,-23.252
-0.742,-0.868,-0.563,-51.761,112.731,-25.985
-0.721,-0.874,-0.595,-52.604,106.523,-29.204
-0.696,-0.882,-0.627,-52.887,96.252,-32.657
-0.669,-0.890,-0.655,-52.439,82.342,-35.950
-0.643,-0.898,-0.678,-51.200,64.363,-38.890
-0.616,-0.905,-0.698,-49.674,39.866,-41.129
-0.590,-0.910,-0.712,-47.057,12.426,-42.688
-0.565,-0.914,-0.721,-42.878,-17.020,-43.516
-0.541,-0.918,-0.725,-36.151,-47.713,-43.919
-0.517,-0.921,-0.726,-26.739,-79.223,-43.973
-0.491,-0.923,-0.726,-14.484,-109.018,-43.843
-0.462,-0.925,-0.723,0.910,-136.365,-43.670
-0.432,-0.927,-0.714,17.311,-162.256,-43.602
-0.402,-0.932,-0.695,32.752,-186.450,-43.870
-0.367,-0.938,-0.663,44.393,-205.956,-44.695
-0.330,-0.944,-0.624,50.685,-219.186,-46.223
-0.296,-0.953,-0.585,54.781,-228.254,-45.943
-0.269,-0.971,-0.544,57.130,-236.317,-45.818
-0.249,-0.980,-0.517,58.223,-243.624,-46.574
-0.229,-0.986,-0.515,58.999,-244.139,-46.432
-0.201,-0.995,-0.529,62.304,-240.479,-45.401
-0.175,-1.008,-0.549,69.248,-237.966,-43.379
-0.150,-1.012,-0.562,79.765,-241.861,-39.807
-0.125,-1.008,-0.560,92.342,-254.978,-33.080
-0.097,-1.004,-0.534,104.280,-273.704,-24.937
-0.067,-0.996,-0.482,114.486,-289.098,-15.955
-0.034,-0.982,-0.421,121.935,-295.288,-5.031
-0.005,-0.967,-0.358,126.158,-294.437,7.335
0.020,-0.947,-0.298,127.397,-289.498,17.048
0.038,-0.918,-0.247,125.481,-281.989,22.796
0.051,-0.886,-0.209,122.567,-274.946,26.576
0.056,-0.858,-0.179,114.458,-269.671,31.794
0.055,-0.853,-0.153,103.458,-265.500,36.585
0.059,-0.847,-0.127,93.055,-262.752,40.980
0.064,-0.841,-0.099,83.108,-264.027,44.240
0.071,-0.834,-0.064,74.024,-262.496,45.283
0.089,-0.825,-0.029,66.165,-257.310,44.284
0.103,-0.809,0.006,58.190,-251.950,42.323
0.110,-0.788,0.042,47.831,-248.200,38.814
0.113,-0.767,0.076,33.504,-247.259,35.105
0.122,-0.755,0.106,19.231,-242.454,32.207
0.131,-0.758,0.134,9.338,-236.944,30.228
0.139,-0.766,0.161,4.710,-231.518,26.508
0.151,-0.757,0.184,1.410,-225.979,23.956
0.159,-0.757,0.209,-1.377,-220.618,23.583
0.152,-0.772,0.232,-3.338,-215.479,25.353
0.151,-0.790,0.248,-3.113,-210.946,28.614
0.156,-0.804,0.264,-0.572,-204.597,32.102
0.160,-0.809,0.278,5.270,-197.226,33.948
0.166,-0.803,0.292,10.130,-188.765,34.903
0.168,-0.796,0.306,14.264,-180.403,35.060
0.166,-0.791,0.320,17.736,-172.452,34.413
0.165,-0.787,0.334,20.696,-164.259,33.354
0.165,-0.782,0.349,23.253,-154.777,32.029
0.165,-0.780,0.364,25.684,-142.752,30.455
0.166,-0.780,0.379,28.371,-127.291,29.002
0.164,-0.781,0.394,30.837,-110.873,28.049
0.157,-0.784,0.407,32.617,-97.787,27.391
0.146,-0.786,0.418,33.428,-91.074,26.912
0.136,-0.784,0.427,33.324,-87.654,26.343
0.129,-0.781,0.436,32.576,-85.307,25.536
0.125,-0.781,0.443,31.227,-82.706,24.598
0.123,-0.784,0.448,30.051,-79.413,23.472
0.120,-0.789,0.452,29.261,-75.441,22.225
0.116,-0.794,0.455,28.714,-71.094,21.156
0.110,-0.799,0.458,28.316,-66.496,20.466
0.104,-0.804,0.462,28.061,-62.211,19.919
0.097,-0.805,0.466,27.745,-58.784,19.407
0.091,-0.804,0.471,27.203,-55.988,18.939
0.085,-0.804,0.476,26.389,-53.415,18.532
0.081,-0.805,0.480,25.423,-51.115,18.157
0.076,-0.807,0.484,24.301,-49.077,17.768
0.072,-0.808,0.487,23.045,-47.088,17.286
0.068,-0.809,0.490,21.572,-45.068,16.721
0.064,-0.811,0.491,20.005,-43.201,16.131
0.059,-0.813,0.491,18.385,-41.717,15.516
0.054,-0.814,0.491,16.719,-40.654,14.797
0.049,-0.816,0.488,14.972,-39.981,13.868
0.045,-0.816,0.486,13.183,-39.394,12.889
0.041,-0.819,0.484,11.456,-38.826,12.006
0.036,-0.821,0.483,9.966,-38.462,11.017
0.032,-0.822,0.483,8.492,-38.215,9.911
0.029,-0.821,0.484,6.898,-37.762,8.732
0.027,-0.821,0.485,5.277,-37.138,7.557
0.024,-0.822,0.486,3.702,-36.378,6.524
0.021,-0.825,0.486,2.330,-35.326,5.694
0.018,-0.828,0.486,1.318,-33.837,5.147
0.015,-0.832,0.485,0.823,-31.923,4.805
0.012,-0.836,0.484,0.647,-29.588,4.650
0.009,-0.840,0.482,0.758,-26.864,4.668
0.006,-0.844,0.480,1.133,-23.773,4.771
0.004,-0.848,0.477,1.767,-20.558,4.905
0.001,-0.851,0.475,2.618,-17.196,5.086
-0.002,-0.853,0.473,3.678,-13.985,5.217
-0.005,-0.854,0.472,4.787,-10.995,5.235
-0.008,-0.855,0.472,5.819,-8.128,5.179
-0.012,-0.855,0.472,6.726,-5.647,4.996
-0.015,-0.854,0.472,7.356,-3.562,4.745
-0.019,-0.853,0.473,7.763,-1.900,4.430
-0.024,-0.852,0.474,7.904,-0.520,4.050
-0.028,-0.852,0.476,7.928,0.621,3.583
-0.031,-0.851,0.477,7.831,1.600,3.084
-0.034,-0.851,0.478,7.661,2.438,2.565
-0.037,-0.852,0.477,7.470,3.231,2.058
-0.039,-0.854,0.477,7.304,3.965,1.576
-0.042,-0.856,0.476,7.183,4.680,1.163
-0.044,-0.858,0.475,7.154,5.411,0.857
-0.047,-0.860,0.475,7.197,6.140,0.622
-0.050,-0.862,0.475,7.277,6.899,0.453
-0.052,-0.864,0.475,7.391,7.698,0.359
-0.055,-0.866,0.476,7.534,8.560,0.331
-0.058,-0.868,0.476,7.686,9.321,0.362
-0.061,-0.868,0.477,7.839,9.970,0.408
-0.064,-0.868,0.479,7.951,10.610,0.433
-0.068,-0.867,0.480,7.987,11.179,0.421
-0.071,-0.866,0.481,7.918,11.628,0.389
-0.074,-0.865,0.481,7.762,11.956,0.321
-0.077,-0.865,0.479,7.544,12.155,0.224
-0.079,-0.866,0.478,7.262,12.195,0.108
-0.082,-0.867,0.477,6.927,12.085,-0.041
-0.085,-0.868,0.477,6.532,11.847,-0.216
-0.087,-0.869,0.477,6.052,11.508,-0.414
-0.089,-0.869,0.478,5.470,11.062,-0.633
-0.092,-0.869,0.478,4.802,10.600,-0.859
-0.094,-0.870,0.478,4.104,10.129,-1.085
-0.096,-0.870,0.478,3.398,9.678,-1.282
-0.098,-0.871,0.478,2.728,9.230,-1.442
-0.101,-0.870,0.477,2.119,8.780,-1.593
-0.103,-0.869,0.477,1.561,8.425,-1.734
-0.104,-0.868,0.477,1.074,8.102,-1.875
-0.106,-0.868,0.476,0.617,7.778,-2.009
-0.107,-0.869,0.475,0.172,7.454,-2.132
-0.109,-0.870,0.474,-0.225,7.140,-2.244
-0.110,-0.871,0.473,-0.534,6.868,-2.345
-0.111,-0.873,0.472,-0.748,6.603,-2.432
-0.112,-0.874,0.471,-0.852,6.397,-2.503
-0.113,-0.875,0.471,-0.906,6.229,-2.562
-0.114,-0.875,0.471,-0.928,6.107,-2.610
-0.115,-0.876,0.471,-0.938,6.014,-2.629
-0.116,-0.877,0.472,-0.954,5.992,-2.609
-0.117,-0.877,0.472,-0.971,5.985,-2.575
-0.118,-0.877,0.471,-0.991,5.984,-2.515
-0.119,-0.877,0.471,-1.014,5.963,-2.446
-0.121,-0.877,0.471,-1.054,5.852,-2.394
-0.123,-0.878,0.471,-1.097,5.777,-2.362
-0.124,-0.878,0.471,-1.118,5.718,-2.349
-0.125,-0.879,0.471,-1.120,5.643,-2.342
-0.126,-0.879,0.471,-1.094,5.550,-2.353
-0.128,-0.878,0.472,-1.053,5.521,-2.363
-0.128,-0.879,0.471,-0.982,5.544,-2.370
-0.129,-0.879,0.471,-0.897,5.560,-2.374
-0.129,-0.879,0.471,-0.824,5.589,-2.378
-0.129,-0.879,0.470,-0.781,5.623,-2.374
-0.129,-0.879,0.470,-0.755,5.680,-2.376
-0.130,-0.880,0.470,-0.701,5.783,-2.374
-0.130,-0.881,0.470,-0.619,5.928,-2.355
-0.130,-0.882,0.470,-0.494,6.103,-2.328
-0.130,-0.883,0.471,-0.369,6.308,-2.278
-0.131,-0.883,0.472,-0.237,6.511,-2.223
-0.131,-0.883,0.473,-0.110,6.679,-2.168
-0.132,-0.883,0.473,0.001,6.793,-2.104
-0.132,-0.882,0.474,0.088,6.877,-2.044
-0.133,-0.882,0.475,0.142,6.865,-1.984
-0.133,-0.882,0.475,0.154,6.805,-1.913
-0.133,-0.885,0.476,0.125,6.734,-1.842
-0.133,-0.885,0.476,0.085,6.668,-1.781
-0.133,-0.885,0.475,0.075,6.570,-1.712
-0.133,-0.885,0.474,0.112,6.418,-1.666
-0.134,-0.885,0.473,0.172,6.227,-1.640
-0.134,-0.885,0.473,0.222,6.024,-1.647
-0.135,-0.884,0.474,0.247,5.830,-1.669
-0.136,-0.884,0.475,0.230,5.658,-1.708
-0.136,-0.883,0.476,0.160,5.475,-1.744
-0.137,-0.883,0.476,0.059,5.329,-1.787
-0.137,-0.882,0.477,-0.059,5.173,-1.822
-0.137,-0.882,0.477,-0.219,5.016,-1.855
-0.137,-0.882,0.477,-0.389,4.862,-1.890
-0.137,-0.881,0.478,-0.558,4.701,-1.942
-0.137,-0.881,0.478,-0.754,4.517,-2.001
-0.137,-0.881,0.479,-0.960,4.334,-2.059

-0.775,-0.721,-0.416,-5.681,27.269,-5.604
-0.782,-0.724,-0.440,-10.620,44.539,-8.931
-0.787,-0.727,-0.468,-15.695,58.120,-12.224
-0.788,-0.734,-0.497,-21.372,69.097,-15.381
-0.787,-0.744,-0.532,-27.701,77.781,-18.274
-0.786,-0.754,-0.564,-34.124,84.931,-21.090
-0.782,-0.767,-0.596,-39.758,89.023,-23.702
-0.781,-0.779,-0.625,-45.700,90.954,-26.115
-0.779,-0.790,-0.651,-52.460,90.842,-28.340
-0.776,-0.802,-0.675,-60.112,89.850,-30.364
-0.772,-0.813,-0.692,-68.752,87.923,-31.936
-0.768,-0.827,-0.703,-78.601,85.415,-33.050
-0.761,-0.844,-0.712,-87.305,82.956,-33.630
-0.753,-0.860,-0.710,-94.730,80.735,-33.718
-0.740,-0.874,-0.700,-101.669,78.059,-33.405
-0.724,-0.881,-0.693,-110.998,75.395,-32.865
-0.678,-0.884,-0.672,-123.412,84.246,-32.383
-0.647,-0.879,-0.678,-135.598,84.756,-33.139
-0.632,-0.871,-0.691,-148.667,81.931,-36.331
-0.613,-0.866,-0.712,-161.555,77.681,-40.649
-0.594,-0.863,-0.740,-171.613,65.848,-46.344
-0.573,-0.859,-0.775,-178.285,48.570,-53.749
-0.552,-0.858,-0.810,-180.484,30.247,-63.033
-0.524,-0.867,-0.842,-176.636,7.970,-70.930
-0.495,-0.883,-0.866,-171.276,-18.155,-76.278
-0.467,-0.900,-0.880,-161.613,-48.285,-80.694
-0.439,-0.901,-0.899,-139.894,-95.870,-86.495
-0.411,-0.904,-0.900,-107.785,-146.092,-89.520
-0.368,-0.912,-0.881,-68.238,-194.726,-90.615
-0.329,-0.921,-0.847,-26.303,-239.133,-89.861
-0.289,-0.934,-0.797,10.118,-278.698,-89.163
-0.253,-0.952,-0.734,37.097,-312.181,-88.007
-0.225,-0.967,-0.675,52.695,-328.039,-86.379
-0.199,-0.967,-0.652,65.734,-328.657,-84.820
-0.179,-0.972,-0.665,80.248,-322.915,-83.741
-0.149,-0.987,-0.687,95.821,-315.397,-82.342
-0.115,-1.000,-0.695,114.343,-310.619,-80.636
-0.081,-1.008,-0.683,132.507,-309.726,-77.799
-0.055,-1.005,-0.648,146.013,-310.634,-71.797
-0.037,-0.998,-0.593,155.459,-311.446,-64.084
-0.021,-0.988,-0.517,160.817,-308.982,-54.911
-0.007,-0.977,-0.442,162.245,-303.914,-45.229
0.004,-0.962,-0.372,159.775,-297.751,-36.890
0.013,-0.945,-0.312,155.925,-291.240,-30.220
0.021,-0.927,-0.267,151.884,-284.990,-25.305
0.030,-0.907,-0.228,147.846,-279.432,-22.266
0.037,-0.889,-0.194,142.067,-274.941,-20.118
0.042,-0.878,-0.163,135.263,-271.887,-17.532
0.044,-0.880,-0.133,129.945,-268.164,-14.694
0.050,-0.882,-0.099,126.630,-262.316,-11.559
0.054,-0.885,-0.068,123.566,-257.063,-8.622
0.059,-0.881,-0.033,120.624,-250.547,-8.022
0.071,-0.872,-0.000,117.371,-244.085,-7.857
0.076,-0.866,0.034,112.761,-237.961,-8.025
0.078,-0.857,0.067,106.298,-232.566,-9.030
0.081,-0.844,0.097,97.602,-227.432,-10.117
0.083,-0.835,0.123,87.884,-222.317,-10.669
0.085,-0.834,0.144,80.388,-217.155,-11.989
0.088,-0.830,0.160,75.082,-212.101,-14.121
0.092,-0.824,0.174,70.855,-207.512,-15.723
0.088,-0.824,0.186,66.527,-202.903,-15.777
0.075,-0.831,0.196,61.848,-198.397,-14.382
0.069,-0.840,0.205,59.113,-194.197,-12.723
0.071,-0.842,0.214,57.837,-189.696,-11.504
0.076,-0.842,0.224,56.915,-184.066,-10.430
0.078,-0.842,0.236,56.449,-176.919,-9.403
0.079,-0.843,0.249,56.731,-168.815,-8.587
0.081,-0.843,0.262,57.585,-160.201,-7.720
0.082,-0.840,0.274,58.741,-150.867,-6.531
0.081,-0.838,0.287,60.084,-141.226,-5.424
0.081,-0.834,0.298,61.388,-131.472,-4.540
0.079,-0.828,0.308,62.313,-121.783,-3.837
0.076,-0.822,0.317,62.691,-112.457,-3.476
0.072,-0.816,0.325,62.438,-103.689,-3.607
0.068,-0.810,0.332,61.743,-95.426,-3.964
0.064,-0.806,0.339,60.780,-88.065,-4.492
0.059,-0.805,0.347,59.684,-82.378,-5.064
0.053,-0.804,0.354,58.542,-77.995,-5.387
0.048,-0.806,0.362,57.437,-73.621,-5.517
0.043,-0.807,0.369,56.376,-69.978,-5.629
0.038,-0.805,0.376,55.254,-67.094,-5.829
0.034,-0.803,0.383,53.948,-64.609,-6.168
0.031,-0.800,0.388,52.335,-62.310,-6.737
0.028,-0.797,0.394,50.463,-60.171,-7.405
0.024,-0.795,0.399,48.649,-57.576,-7.900
0.021,-0.798,0.404,47.247,-54.502,-8.141
0.017,-0.801,0.408,46.065,-51.789,-8.018
0.011,-0.804,0.411,45.004,-49.712,-7.487
0.007,-0.807,0.415,44.078,-47.725,-6.668
0.004,-0.810,0.420,43.252,-45.548,-5.797
0.002,-0.811,0.423,42.480,-43.334,-5.063
0.000,-0.812,0.425,41.686,-41.356,-4.542
-0.003,-0.812,0.428,40.707,-39.822,-4.290
-0.006,-0.811,0.430,39.411,-38.876,-4.246
-0.010,-0.809,0.433,37.780,-38.183,-4.332
-0.013,-0.808,0.435,35.872,-37.707,-4.493
-0.017,-0.808,0.438,33.761,-37.378,-4.677
-0.021,-0.809,0.440,31.645,-37.123,-4.869
-0.024,-0.810,0.443,29.567,-36.855,-5.113
-0.027,-0.810,0.446,27.476,-36.497,-5.455
-0.030,-0.811,0.448,25.275,-36.297,-5.872
-0.033,-0.813,0.450,22.995,-35.973,-6.146
-0.037,-0.816,0.452,20.954,-35.604,-6.411
-0.039,-0.819,0.453,19.207,-35.101,-6.781
-0.041,-0.821,0.454,17.668,-34.536,-7.224
-0.044,-0.823,0.455,16.265,-33.946,-7.637
-0.046,-0.825,0.456,14.973,-33.243,-7.952
-0.049,-0.828,0.456,13.950,-32.317,-8.128
-0.050,-0.832,0.457,13.318,-30.834,-8.170
-0.052,-0.836,0.457,13.059,-28.917,-8.038
-0.053,-0.839,0.457,13.137,-26.683,-7.682
-0.055,-0.842,0.458,13.354,-24.318,-7.233
-0.057,-0.844,0.459,13.622,-21.999,-6.758
-0.059,-0.846,0.460,13.889,-19.864,-6.343
-0.061,-0.847,0.462,14.128,-17.893,-6.009
-0.063,-0.848,0.464,14.305,-16.064,-5.737
-0.064,-0.850,0.466,14.457,-14.330,-5.550
-0.066,-0.851,0.468,14.551,-12.664,-5.377
-0.067,-0.853,0.470,14.557,-11.238,-5.213
-0.069,-0.853,0.471,14.494,-10.122,-5.105
-0.071,-0.854,0.472,14.315,-9.193,-5.056
-0.072,-0.854,0.473,14.087,-8.393,-5.084
-0.073,-0.855,0.474,13.813,-7.688,-5.166
-0.074,-0.855,0.475,13.471,-7.070,-5.273
-0.075,-0.855,0.476,13.094,-6.517,-5.368
-0.076,-0.856,0.476,12.769,-5.924,-5.417
-0.077,-0.857,0.477,12.556,-5.250,-5.405
-0.079,-0.859,0.478,12.470,-4.440,-5.332
-0.080,-0.861,0.479,12.511,-3.508,-5.209
-0.081,-0.862,0.480,12.662,-2.468,-4.980
-0.082,-0.863,0.482,12.833,-1.432,-4.699
-0.084,-0.863,0.483,13.000,-0.388,-4.405
-0.085,-0.863,0.485,13.102,0.681,-4.104
-0.088,-0.862,0.486,13.080,1.562,-3.817
-0.090,-0.861,0.488,12.874,2.190,-3.584
-0.092,-0.860,0.489,12.523,2.615,-3.352
-0.095,-0.860,0.489,12.087,3.009,-3.169
-0.097,-0.860,0.489,11.611,3.230,-3.027
-0.099,-0.860,0.488,11.068,3.268,-2.919
-0.101,-0.861,0.488,10.506,3.165,-2.845
-0.103,-0.861,0.488,9.965,2.984,-2.840
-0.105,-0.862,0.488,9.434,2.739,-2.868
-0.107,-0.862,0.488,8.888,2.426,-2.908
-0.108,-0.862,0.489,8.322,2.214,-2.965
-0.109,-0.862,0.490,7.749,1.990,-3.054
-0.111,-0.862,0.490,7.123,1.786,-3.117
-0.112,-0.862,0.491,6.444,1.570,-3.194
-0.113,-0.861,0.491,5.750,1.363,-3.263
-0.113,-0.861,0.491,5.089,1.170,-3.316
-0.114,-0.862,0.490,4.470,0.984,-3.346
-0.114,-0.862,0.490,3.912,0.822,-3.366
-0.114,-0.863,0.489,3.405,0.640,-3.368
-0.114,-0.863,0.488,2.981,0.491,-3.320
-0.113,-0.864,0.488,2.675,0.377,-3.268
-0.113,-0.865,0.487,2.468,0.345,-3.203
-0.112,-0.865,0.487,2.348,0.382,-3.145
-0.112,-0.865,0.488,2.266,0.475,-3.069
-0.112,-0.865,0.488,2.183,0.548,-2.998
-0.111,-0.865,0.488,2.072,0.659,-2.926
-0.111,-0.864,0.488,1.930,0.772,-2.860
-0.111,-0.864,0.489,1.754,0.855,-2.782
-0.110,-0.863,0.489,1.545,0.873,-2.708
-0.109,-0.863,0.489,1.294,0.843,-2.633
-0.108,-0.863,0.489,1.026,0.773,-2.559
-0.107,-0.863,0.489,0.768,0.728,-2.479
-0.105,-0.863,0.490,0.530,0.652,-2.396
-0.104,-0.863,0.490,0.331,0.601,-2.314
-0.102,-0.863,0.491,0.175,0.584,-2.235
-0.101,-0.864,0.491,0.065,0.599,-2.155
-0.099,-0.865,0.492,-0.003,0.645,-2.078
-0.098,-0.865,0.493,-0.029,0.720,-1.998
-0.097,-0.866,0.494,-0.026,0.818,-1.922
-0.096,-0.866,0.495,0.002,0.944,-1.835
-0.095,-0.867,0.495,0.054,1.067,-1.737
-0.094,-0.868,0.496,0.133,1.219,-1.643
-0.093,-0.868,0.496,0.249,1.395,-1.557
-0.092,-0.869,0.497,0.392,1.560,-1.464
-0.091,-0.870,0.498,0.547,1.737,-1.366
-0.089,-0.870,0.499,0.703,1.936,-1.271
-0.087,-0.871,0.500,0.857,2.124,-1.155
-0.086,-0.871,0.501,0.999,2.316,-1.029
-0.084,-0.871,0.502,1.131,2.512,-0.903
-0.083,-0.871,0.502,1.233,2.715,-0.741
-0.081,-0.871,0.503,1.328,2.886,-0.578
-0.079,-0.871,0.503,1.399,3.048,-0.428
-0.078,-0.871,0.502,1.451,3.142,-0.287
-0.076,-0.871,0.502,1.501,3.156,-0.168
-0.075,-0.871,0.502,1.534,3.113,-0.063
-0.073,-0.871,0.502,1.563,3.046,0.017
-0.071,-0.871,0.502,1.601,2.941,0.082
-0.070,-0.872,0.503,1.637,2.824,0.148
-0.068,-0.872,0.503,1.659,2.714,0.213
-0.066,-0.872,0.503,1.662,2.600,0.307
-0.064,-0.872,0.503,1.639,2.501,0.423
-0.062,-0.872,0.503,1.605,2.411,0.560
-0.060,-0.871,0.502,1.575,2.332,0.709
-0.059,-0.871,0.502,1.563,2.243,0.862
-0.057,-0.871,0.502,1.560,2.178,1.023
-0.055,-0.870,0.502,1.564,2.084,1.176

-0.726,-0.705,-0.457,-0.318,33.628,0.581
-0.738,-0.705,-0.476,-2.412,59.517,0.044
-0.749,-0.705,-0.497,-4.977,81.143,-0.408
-0.759,-0.705,-0.520,-7.874,99.325,-0.864
-0.769,-0.704,-0.546,-10.928,114.395,-1.386
-0.779,-0.703,-0.573,-13.691,127.587,-2.057
-0.787,-0.702,-0.601,-16.442,136.517,-2.869
-0.797,-0.701,-0.627,-19.806,142.207,-3.759
-0.805,-0.700,-0.646,-23.858,144.523,-4.744
-0.813,-0.698,-0.664,-28.936,145.245,-5.804
-0.821,-0.697,-0.677,-35.485,144.808,-6.891
-0.826,-0.697,-0.686,-42.751,143.008,-7.930
-0.826,-0.698,-0.683,-50.316,147.869,-8.662
-0.792,-0.702,-0.683,-55.070,156.052,-9.440
-0.779,-0.708,-0.691,-55.801,157.803,-11.269
-0.770,-0.714,-0.699,-55.006,154.765,-13.089
-0.759,-0.721,-0.715,-53.631,149.263,-14.865
-0.744,-0.725,-0.735,-52.108,144.133,-16.774
-0.728,-0.728,-0.761,-50.511,137.626,-19.180
-0.714,-0.732,-0.788,-49.083,127.453,-21.875
-0.700,-0.739,-0.817,-47.777,113.035,-24.728
-0.684,-0.747,-0.844,-46.606,96.368,-27.576
-0.668,-0.756,-0.865,-45.723,77.908,-30.531
-0.654,-0.763,-0.880,-45.096,57.173,-33.455
-0.641,-0.771,-0.891,-44.686,33.616,-36.193
-0.630,-0.779,-0.900,-44.337,9.607,-38.618
-0.618,-0.787,-0.908,-43.875,-13.532,-40.638
-0.605,-0.797,-0.915,-43.012,-34.733,-42.354
-0.592,-0.807,-0.922,-41.860,-52.939,-43.866
-0.577,-0.816,-0.928,-40.220,-68.572,-45.164
-0.562,-0.824,-0.934,-37.138,-81.215,-46.536
-0.545,-0.829,-0.938,-32.900,-92.404,-47.830
-0.528,-0.834,-0.941,-27.090,-101.627,-49.488
-0.507,-0.839,-0.938,-20.370,-108.067,-53.020
-0.484,-0.834,-0.930,-13.216,-113.517,-57.818
-0.459,-0.837,-0.908,-6.065,-119.176,-59.764
-0.440,-0.854,-0.884,1.435,-132.303,-59.924
-0.427,-0.863,-0.858,8.089,-156.605,-59.165
-0.417,-0.871,-0.829,12.855,-189.439,-58.291
-0.402,-0.877,-0.793,15.863,-223.357,-57.636
-0.382,-0.882,-0.757,18.086,-249.658,-57.022
-0.360,-0.891,-0.720,20.656,-267.557,-56.394
-0.338,-0.897,-0.697,23.656,-276.219,-55.887
-0.316,-0.896,-0.693,27.500,-276.338,-55.858
-0.292,-0.892,-0.693,32.286,-274.519,-56.764
-0.268,-0.890,-0.690,38.487,-272.963,-58.455
-0.244,-0.890,-0.678,48.344,-271.857,-60.020
-0.217,-0.892,-0.657,60.720,-269.953,-61.648
-0.189,-0.894,-0.620,73.279,-268.046,-62.403
-0.164,-0.897,-0.573,85.374,-264.635,-61.964
-0.137,-0.900,-0.523,96.663,-258.899,-60.853
-0.115,-0.901,-0.475,105.295,-254.263,-59.770
-0.100,-0.894,-0.427,108.938,-250.283,-58.582
-0.080,-0.884,-0.384,109.299,-244.301,-56.588
-0.060,-0.874,-0.348,107.759,-238.086,-53.051
-0.051,-0.865,-0.320,105.550,-232.657,-48.252
-0.053,-0.855,-0.296,103.101,-229.611,-39.224
-0.056,-0.849,-0.276,100.709,-228.380,-30.379
-0.052,-0.838,-0.254,98.445,-225.550,-23.902
-0.041,-0.827,-0.232,96.333,-220.732,-19.365
-0.030,-0.818,-0.208,94.345,-215.721,-16.432
-0.025,-0.811,-0.181,92.382,-211.059,-14.572
-0.022,-0.804,-0.153,90.337,-206.770,-13.591
-0.019,-0.796,-0.122,88.247,-202.859,-13.218
-0.015,-0.786,-0.090,85.124,-199.309,-13.224
-0.011,-0.777,-0.059,80.656,-196.056,-13.447
-0.006,-0.770,-0.029,73.842,-192.530,-13.869
-0.000,-0.762,-0.006,65.985,-188.836,-14.388
0.004,-0.756,0.014,57.948,-185.209,-14.821
0.006,-0.753,0.030,50.839,-181.525,-15.103
0.008,-0.752,0.043,45.325,-177.816,-15.161
0.008,-0.755,0.056,41.515,-174.152,-14.749
0.008,-0.762,0.068,39.682,-170.702,-14.117
0.007,-0.767,0.080,38.695,-167.375,-13.578
0.006,-0.769,0.091,38.001,-163.955,-13.166
0.005,-0.771,0.104,37.401,-160.345,-12.802
0.003,-0.774,0.118,36.853,-156.661,-11.779
0.002,-0.779,0.133,36.362,-152.698,-11.255
0.002,-0.784,0.148,36.049,-148.094,-10.638
0.003,-0.789,0.162,36.021,-142.733,-9.972
0.003,-0.792,0.176,36.223,-137.258,-9.263
0.003,-0.793,0.188,36.583,-131.911,-8.529
0.002,-0.795,0.199,37.152,-126.684,-7.795
0.001,-0.797,0.208,37.871,-121.443,-7.230
-0.001,-0.798,0.217,38.609,-116.286,-6.807
-0.003,-0.800,0.227,39.227,-111.405,-6.514
-0.005,-0.802,0.237,39.612,-106.842,-6.357
-0.007,-0.804,0.248,39.595,-102.456,-6.342
-0.008,-0.806,0.260,39.297,-98.211,-6.400
-0.009,-0.808,0.271,38.770,-94.229,-6.501
-0.011,-0.810,0.282,38.072,-90.483,-6.625
-0.013,-0.812,0.292,37.197,-86.912,-6.709
-0.016,-0.814,0.301,36.195,-83.393,-6.704
-0.019,-0.818,0.309,35.288,-79.814,-6.571
-0.023,-0.822,0.316,34.546,-76.073,-6.262
-0.027,-0.826,0.322,33.948,-72.322,-5.764
-0.031,-0.830,0.329,33.966,-68.640,-5.115
-0.035,-0.834,0.335,33.593,-65.050,-4.471
-0.038,-0.837,0.341,33.278,-61.587,-3.873
-0.040,-0.839,0.347,32.989,-58.260,-3.381
-0.043,-0.841,0.352,32.692,-55.137,-3.020
-0.045,-0.842,0.358,32.333,-52.234,-2.859
-0.048,-0.842,0.364,31.870,-49.415,-3.103
-0.050,-0.840,0.369,31.053,-47.992,-3.974
-0.055,-0.835,0.372,29.631,-46.692,-4.619
-0.055,-0.838,0.378,28.252,-43.693,-4.923
-0.059,-0.843,0.379,27.281,-42.686,-5.070
-0.066,-0.845,0.383,26.315,-42.084,-5.190
-0.064,-0.844,0.387,25.443,-40.700,-5.168
-0.065,-0.846,0.390,24.781,-38.774,-5.054
-0.067,-0.850,0.393,24.427,-36.934,-4.803
-0.070,-0.853,0.395,24.149,-35.553,-4.509
-0.073,-0.855,0.398,23.873,-34.265,-4.254
-0.074,-0.856,0.401,23.576,-32.692,-4.102
-0.075,-0.856,0.404,23.278,-31.103,-3.977
-0.077,-0.857,0.406,22.975,-29.689,-3.878
-0.079,-0.858,0.409,22.653,-28.495,-3.799
-0.081,-0.859,0.412,22.221,-27.726,-3.716
-0.083,-0.859,0.414,21.627,-27.233,-3.660
-0.086,-0.859,0.417,20.852,-27.017,-3.658
-0.088,-0.859,0.420,19.795,-27.046,-3.725
-0.090,-0.859,0.423,18.569,-27.217,-3.871
-0.091,-0.859,0.425,17.232,-27.431,-4.116
-0.090,-0.859,0.427,15.856,-27.472,-4.435
-0.090,-0.860,0.429,14.629,-27.291,-4.839
-0.090,-0.862,0.431,13.656,-27.085,-5.291
-0.091,-0.864,0.432,12.846,-26.852,-5.707
-0.092,-0.865,0.433,12.202,-26.522,-6.026
-0.093,-0.867,0.434,11.709,-26.177,-6.236
-0.095,-0.869,0.434,11.403,-25.748,-6.323
-0.096,-0.870,0.435,11.232,-25.204,-6.334
-0.097,-0.871,0.436,11.167,-24.604,-6.257
-0.098,-0.871,0.437,11.175,-23.861,-6.082
-0.099,-0.872,0.439,11.235,-23.092,-5.810
-0.100,-0.872,0.440,11.351,-22.238,-5.422
-0.101,-0.872,0.441,11.515,-21.284,-4.981
-0.102,-0.872,0.442,11.717,-20.245,-4.535
-0.102,-0.871,0.443,11.919,-19.172,-4.076
-0.103,-0.871,0.444,12.049,-18.148,-3.647
-0.104,-0.869,0.445,12.094,-17.192,-3.274
-0.105,-0.867,0.446,12.019,-16.390,-2.913
-0.106,-0.865,0.447,11.866,-15.638,-2.583
-0.107,-0.864,0.447,11.700,-14.866,-2.308
-0.108,-0.863,0.448,11.455,-14.189,-1.999
-0.110,-0.862,0.448,11.154,-13.575,-1.731
-0.111,-0.861,0.449,10.814,-12.976,-1.547
-0.112,-0.860,0.449,10.489,-12.336,-1.439
-0.113,-0.860,0.450,10.208,-11.681,-1.373
-0.114,-0.859,0.450,9.957,-11.043,-1.329
-0.115,-0.859,0.451,9.692,-10.412,-1.291
-0.117,-0.858,0.452,9.401,-9.812,-1.259
-0.118,-0.858,0.453,9.114,-9.223,-1.257
-0.119,-0.858,0.453,8.819,-8.608,-1.231
-0.120,-0.858,0.454,8.558,-7.993,-1.192
-0.121,-0.857,0.454,8.306,-7.315,-1.128
-0.122,-0.857,0.455,8.079,-6.585,-1.046
-0.124,-0.857,0.456,7.858,-5.836,-0.963
-0.125,-0.857,0.456,7.630,-5.111,-0.879
-0.127,-0.857,0.457,7.390,-4.414,-0.802
-0.128,-0.858,0.458,7.176,-3.745,-0.748
-0.129,-0.859,0.458,7.022,-3.139,-0.734
-0.129,-0.859,0.459,6.910,-2.637,-0.790
-0.129,-0.860,0.460,6.811,-2.269,-0.869
-0.129,-0.861,0.462,6.735,-1.955,-0.963
-0.129,-0.862,0.464,6.658,-1.733,-1.065
-0.129,-0.863,0.467,6.546,-1.652,-1.177
-0.129,-0.863,0.469,6.386,-1.638,-1.303
-0.129,-0.863,0.471,6.187,-1.621,-1.437
-0.129,-0.863,0.474,5.953,-1.641,-1.582
-0.129,-0.863,0.476,5.677,-1.691,-1.739
-0.130,-0.863,0.478,5.356,-1.770,-1.904
-0.130,-0.864,0.480,5.043,-1.815,-2.083
-0.130,-0.865,0.482,4.773,-1.797,-2.269
-0.130,-0.866,0.483,4.550,-1.690,-2.458
-0.130,-0.867,0.484,4.357,-1.510,-2.644
-0.130,-0.868,0.486,4.187,-1.320,-2.841
-0.129,-0.869,0.487,4.048,-1.035,-3.019
-0.128,-0.870,0.488,3.929,-0.744,-3.179
-0.127,-0.870,0.490,3.815,-0.445,-3.323
-0.125,-0.870,0.491,3.691,-0.131,-3.440
-0.123,-0.870,0.492,3.559,0.186,-3.523
-0.121,-0.870,0.492,3.431,0.498,-3.588
-0.119,-0.870,0.493,3.298,0.810,-3.630
-0.116,-0.870,0.494,3.155,1.124,-3.641
-0.114,-0.869,0.494,2.996,1.443,-3.626
-0.111,-0.869,0.494,2.823,1.782,-3.577
-0.108,-0.868,0.495,2.635,2.158,-3.469
-0.105,-0.867,0.495,2.423,2.562,-3.314
-0.101,-0.866,0.495,2.185,2.976,-3.123
-0.097,-0.864,0.494,1.910,3.386,-2.896
-0.093,-0.862,0.494,1.584,3.779,-2.629
-0.089,-0.860,0.494,1.168,4.134,-2.345
-0.085,-0.858,0.494,0.728,4.426,-2.095
-0.082,-0.856,0.493,0.261,4.647,-1.899
-0.079,-0.854,0.493,-0.194,4.793,-1.762
-0.077,-0.853,0.493,-0.654,4.888,-1.696
-0.075,-0.852,0.493,-1.081,4.938,-1.708
-0.073,-0.851,0.493,-1.454,4.950,-1.774
-0.070,-0.850,0.493,-1.772,4.948,-1.880

-0.641,-0.736,-0.539,-3.865,35.949,-2.816
-0.652,-0.740,-0.573,-6.183,59.351,-4.193
-0.664,-0.745,-0.605,-8.199,77.040,-5.924
-0.677,-0.750,-0.636,-9.994,92.333,-8.063
-0.691,-0.755,-0.661,-11.634,103.002,-10.335
-0.708,-0.757,-0.676,-13.322,109.806,-12.563
-0.722,-0.757,-0.682,-15.427,116.825,-14.342
-0.714,-0.756,-0.676,-18.473,137.352,-14.969
-0.701,-0.755,-0.678,-22.073,156.706,-15.385
-0.698,-0.750,-0.682,-27.131,164.313,-16.065
-0.691,-0.748,-0.692,-32.643,165.047,-16.901
