aX,aY,aZ,gX,gY,gZ
-0.467,-0.875,0.518,-32.796,0.312,16.350
-0.468,-0.875,0.525,-32.152,-1.126,16.271
-0.468,-0.875,0.531,-31.744,-2.500,16.212
-0.468,-0.875,0.538,-31.669,-3.805,16.167
-0.468,-0.874,0.544,-31.839,-5.023,16.118
-0.467,-0.874,0.548,-32.187,-6.066,16.052
-0.466,-0.874,0.551,-32.589,-6.984,15.954
-0.465,-0.875,0.553,-32.910,-7.779,15.825
-0.464,-0.876,0.555,-33.124,-8.479,15.649
-0.462,-0.877,0.558,-33.282,-9.101,15.423
-0.460,-0.877,0.563,-33.378,-9.669,15.132
-0.458,-0.878,0.569,-33.437,-10.185,14.767
-0.455,-0.879,0.578,-33.480,-10.659,14.252
-0.452,-0.881,0.589,-33.646,-11.049,13.639
-0.449,-0.882,0.602,-33.825,-11.344,12.884
-0.445,-0.884,0.614,-33.963,-11.387,12.003
-0.440,-0.886,0.625,-33.994,-11.163,11.085
-0.435,-0.887,0.634,-33.926,-10.641,10.201
-0.430,-0.889,0.639,-33.568,-9.771,9.395
-0.425,-0.893,0.642,-32.957,-8.397,8.666
-0.418,-0.898,0.643,-32.117,-6.027,8.013
-0.412,-0.903,0.643,-30.916,-2.949,7.431
-0.405,-0.908,0.642,-29.099,0.759,6.913
-0.397,-0.915,0.642,-26.962,5.384,6.434
-0.390,-0.922,0.643,-24.589,10.882,5.945
-0.383,-0.930,0.647,-22.101,17.508,5.392
-0.377,-0.938,0.656,-19.711,24.422,4.754
-0.369,-0.947,0.663,-17.611,32.403,4.139
-0.360,-0.959,0.670,-15.204,41.458,3.591
-0.351,-0.970,0.676,-12.380,51.771,3.064
-0.341,-0.979,0.679,-8.977,64.831,2.656
-0.330,-0.984,0.678,-5.089,79.586,2.414
-0.320,-0.987,0.674,-0.872,95.784,2.342
-0.311,-0.987,0.664,3.535,113.264,2.509
-0.303,-0.982,0.649,7.331,131.743,2.953
-0.296,-0.975,0.632,10.233,150.375,3.695
-0.292,-0.966,0.613,12.200,168.734,4.640
-0.294,-0.958,0.595,13.336,187.464,5.856
-0.294,-0.947,0.577,13.762,205.099,6.985
-0.296,-0.935,0.560,13.565,221.325,7.798
-0.300,-0.924,0.542,12.456,234.929,8.084
-0.303,-0.915,0.524,10.712,245.410,8.041
-0.305,-0.910,0.506,8.607,253.683,7.806
-0.306,-0.908,0.488,6.551,260.880,7.437
-0.306,-0.907,0.470,4.811,267.885,6.990
-0.304,-0.905,0.452,3.434,275.256,6.478
-0.299,-0.903,0.436,2.507,282.289,5.953
-0.296,-0.899,0.418,2.014,287.601,5.481
-0.291,-0.893,0.400,1.956,291.194,5.192
-0.282,-0.885,0.383,2.275,293.592,5.002
-0.269,-0.878,0.366,2.966,294.579,4.862
-0.259,-0.869,0.344,3.862,291.461,4.704
-0.250,-0.861,0.320,4.879,286.939,4.467
-0.241,-0.853,0.293,5.719,280.316,4.187
-0.234,-0.845,0.263,6.278,272.401,3.776
-0.227,-0.840,0.231,6.582,263.779,3.228
-0.221,-0.837,0.200,6.615,254.865,2.460
-0.215,-0.836,0.171,6.495,246.002,1.646
-0.209,-0.834,0.143,6.245,237.377,0.857
-0.205,-0.833,0.117,6.296,229.157,0.454
-0.203,-0.835,0.091,6.516,221.470,0.216
-0.201,-0.833,0.067,6.788,214.388,-0.063
-0.200,-0.829,0.045,7.252,207.765,-0.333
-0.201,-0.826,0.025,7.883,201.597,-0.512
-0.203,-0.823,0.006,8.656,195.860,-0.707
-0.208,-0.811,-0.012,9.355,190.527,-1.500
-0.215,-0.804,-0.029,9.562,185.159,-2.120
-0.223,-0.806,-0.050,10.157,178.696,-0.831
-0.223,-0.806,-0.065,13.017,173.427,-0.021
-0.232,-0.800,-0.079,15.054,168.637,1.360
-0.241,-0.794,-0.090,16.309,163.315,2.534
-0.248,-0.789,-0.099,17.031,157.936,3.065
-0.255,-0.783,-0.106,17.412,152.495,3.281
-0.264,-0.780,-0.112,17.718,147.125,3.181
-0.272,-0.777,-0.116,17.913,141.843,2.922
-0.282,-0.773,-0.120,17.831,136.516,2.602
-0.292,-0.770,-0.124,17.452,130.711,2.181
-0.302,-0.766,-0.128,16.690,124.639,1.480
-0.313,-0.763,-0.132,15.592,118.719,0.486
-0.323,-0.763,-0.135,14.456,113.402,-0.519
-0.331,-0.765,-0.138,13.632,108.741,-1.359
-0.339,-0.768,-0.140,13.146,104.883,-2.032
-0.347,-0.770,-0.142,12.799,101.306,-2.494
-0.355,-0.771,-0.143,11.800,97.670,-2.728
-0.363,-0.772,-0.144,11.507,93.973,-2.715
-0.370,-0.773,-0.144,11.307,90.445,-2.549
-0.376,-0.775,-0.144,11.228,87.270,-2.256
-0.382,-0.777,-0.144,11.243,84.334,-1.884
-0.387,-0.778,-0.144,11.275,81.548,-1.510
-0.393,-0.779,-0.144,11.237,78.880,-1.181
-0.398,-0.779,-0.145,11.124,75.006,-1.009
-0.404,-0.778,-0.146,10.859,72.204,-0.996
-0.409,-0.778,-0.147,10.448,69.448,-1.131
-0.414,-0.779,-0.148,9.979,66.827,-1.426
-0.418,-0.781,-0.149,9.517,64.270,-1.764
-0.423,-0.784,-0.148,9.060,61.758,-2.116
-0.427,-0.787,-0.148,8.615,59.282,-2.454
-0.431,-0.790,-0.147,8.211,56.830,-2.739
-0.435,-0.793,-0.146,7.843,54.360,-2.916
-0.439,-0.796,-0.145,7.504,51.829,-3.000
-0.442,-0.799,-0.144,7.182,49.217,-3.011
-0.445,-0.802,-0.142,6.857,46.565,-2.971
-0.448,-0.804,-0.142,6.522,43.860,-2.894
-0.451,-0.806,-0.141,6.171,41.150,-2.771
-0.454,-0.808,-0.141,5.864,38.475,-2.599
-0.456,-0.810,-0.140,5.594,35.853,-2.391
-0.459,-0.813,-0.139,5.380,33.358,-2.156
-0.462,-0.816,-0.137,5.226,31.031,-1.898
-0.465,-0.818,-0.134,5.152,28.882,-1.610
-0.467,-0.821,-0.132,5.112,26.874,-1.311
-0.470,-0.823,-0.129,5.074,24.989,-1.007
-0.472,-0.825,-0.125,5.037,23.194,-0.703
-0.475,-0.827,-0.122,4.999,21.502,-0.417
-0.478,-0.828,-0.119,4.949,19.904,-0.153
-0.481,-0.830,-0.115,4.878,18.406,0.086
-0.484,-0.831,-0.112,4.790,17.004,0.301
-0.487,-0.832,-0.110,4.688,15.695,0.511
-0.490,-0.833,-0.107,3.955,14.464,0.717
-0.493,-0.833,-0.104,3.830,13.320,0.923
-0.496,-0.834,-0.100,3.713,12.255,1.132
-0.499,-0.835,-0.097,3.633,11.280,1.337
-0.502,-0.835,-0.092,3.577,10.375,1.543
-0.505,-0.835,-0.088,3.538,9.532,1.748
-0.508,-0.835,-0.084,3.508,8.752,1.942
-0.511,-0.835,-0.079,3.495,8.030,2.123
-0.514,-0.835,-0.075,3.504,7.371,2.293
-0.516,-0.835,-0.072,3.504,6.785,2.447
-0.519,-0.834,-0.069,3.489,6.263,2.575
-0.521,-0.834,-0.066,3.455,5.804,2.674
-0.523,-0.833,-0.063,3.408,5.403,2.721
-0.525,-0.832,-0.060,3.347,5.054,2.740
-0.527,-0.831,-0.057,3.276,4.738,2.725
-0.529,-0.830,-0.053,3.184,4.462,2.675
-0.530,-0.829,-0.050,3.070,4.224,2.592
-0.532,-0.828,-0.047,2.962,4.020,2.477
-0.533,-0.828,-0.045,2.868,3.856,2.329
-0.534,-0.827,-0.042,2.800,3.734,2.153
-0.535,-0.826,-0.041,2.750,3.656,1.947
-0.536,-0.824,-0.039,2.707,3.605,1.710
-0.536,-0.823,-0.039,2.676,3.570,1.449
-0.537,-0.823,-0.039,2.649,3.538,1.161
-0.537,-0.822,-0.039,2.633,3.518,0.852
-0.538,-0.822,-0.039,2.646,3.516,0.525
-0.538,-0.822,-0.039,2.677,3.540,0.182
-0.538,-0.822,-0.038,2.732,3.566,-0.153
-0.538,-0.822,-0.038,2.799,3.588,-0.476
-0.537,-0.822,-0.038,2.869,3.602,-0.773
-0.536,-0.822,-0.037,2.933,3.599,-1.044
-0.535,-0.823,-0.038,2.976,3.576,-1.282
-0.534,-0.823,-0.038,3.007,3.532,-1.490
-0.534,-0.824,-0.038,3.020,3.457,-1.674
-0.533,-0.824,-0.039,3.021,3.349,-1.828
-0.532,-0.825,-0.040,3.004,3.214,-1.957
-0.532,-0.826,-0.041,2.986,3.055,-2.066
-0.531,-0.826,-0.042,2.970,2.885,-2.155
-0.531,-0.827,-0.044,2.966,2.711,-2.229
-0.531,-0.828,-0.044,2.978,2.537,-2.282
-0.531,-0.828,-0.045,2.995,2.364,-2.325
-0.531,-0.829,-0.045,3.008,2.180,-2.360
-0.531,-0.829,-0.046,2.992,1.978,-2.387
-0.531,-0.830,-0.046,2.938,1.756,-2.410
-0.531,-0.830,-0.046,2.817,1.510,-2.432
-0.531,-0.831,-0.046,2.663,1.253,-2.457
-0.532,-0.831,-0.046,2.471,0.967,-2.489
-0.532,-0.832,-0.046,2.255,0.661,-2.516
-0.533,-0.833,-0.047,2.021,0.350,-2.546
-0.533,-0.834,-0.047,1.774,0.035,-2.572
-0.534,-0.835,-0.048,1.534,-0.275,-2.593
-0.535,-0.836,-0.047,1.327,-0.570,-2.605
-0.536,-0.837,-0.047,1.161,-0.843,-2.610
-0.537,-0.838,-0.046,1.034,-1.091,-2.600
-0.537,-0.839,-0.046,0.936,-1.318,-2.576
-0.538,-0.840,-0.045,0.850,-1.520,-2.539
-0.539,-0.841,-0.045,0.779,-1.708,-2.488
-0.539,-0.842,-0.045,0.711,-1.891,-2.420
-0.539,-0.843,-0.045,0.638,-2.075,-2.338
-0.539,-0.844,-0.046,0.552,-2.282,-2.248
-0.539,-0.844,-0.046,0.457,-2.519,-2.155
-0.539,-0.845,-0.046,0.338,-2.794,-2.058
-0.539,-0.846,-0.046,0.194,-3.129,-1.958
-0.539,-0.847,-0.047,0.051,-3.487,-1.852
-0.539,-0.848,-0.047,-0.082,-3.876,-1.739
-0.539,-0.849,-0.047,-0.212,-4.291,-1.611
-0.539,-0.850,-0.048,-0.329,-4.717,-1.471
-0.539,-0.851,-0.048,-0.424,-5.140,-1.311
-0.539,-0.851,-0.048,-0.508,-5.568,-1.128
-0.539,-0.851,-0.048,-0.603,-5.989,-0.924
-0.539,-0.852,-0.049,-0.726,-6.415,-0.708
-0.539,-0.852,-0.049,-0.882,-6.855,-0.474
-0.539,-0.853,-0.050,-1.079,-7.310,-0.233
-0.539,-0.853,-0.050,-1.291,-7.795,0.013
-0.539,-0.853,-0.050,-1.502,-8.298,0.246
-0.539,-0.853,-0.050,-1.695,-8.811,0.472
-0.539,-0.853,-0.051,-1.870,-9.376,0.681
-0.539,-0.853,-0.051,-2.034,-9.944,0.893
-0.538,-0.853,-0.052,-2.174,-10.556,1.108
-0.538,-0.853,-0.054,-2.251,-11.230,1.339
-0.537,-0.853,-0.056,-2.304,-12.009,1.591
-0.536,-0.853,-0.058,-2.366,-12.946,1.867

-0.208,-0.871,0.777,-4.838,-20.394,1.064
-0.202,-0.875,0.784,-6.898,-26.458,0.259
-0.196,-0.879,0.792,-8.716,-31.471,-0.587
-0.189,-0.885,0.800,-10.285,-35.355,-1.508
-0.181,-0.892,0.810,-11.512,-38.421,-2.529
-0.172,-0.900,0.821,-12.252,-40.833,-3.756
-0.163,-0.910,0.835,-12.754,-42.680,-5.091
-0.152,-0.921,0.853,-13.128,-43.824,-6.488
-0.139,-0.933,0.873,-13.325,-44.425,-7.917
-0.124,-0.946,0.893,-13.249,-44.504,-9.304
-0.108,-0.959,0.912,-12.940,-44.086,-10.493
-0.090,-0.972,0.932,-12.377,-43.134,-11.405
-0.072,-0.984,0.950,-11.463,-41.196,-12.047
-0.054,-0.994,0.966,-9.990,-37.978,-12.343
-0.038,-1.001,0.981,-8.181,-33.290,-12.406
-0.022,-1.006,0.992,-6.074,-26.425,-12.302
-0.009,-1.012,1.001,-3.706,-18.155,-12.102
0.004,-1.017,1.008,-0.970,-8.800,-11.888
0.016,-1.023,1.014,1.941,1.382,-11.755
0.027,-1.027,1.018,4.793,12.339,-11.737
0.038,-1.031,1.023,7.517,24.298,-11.829
0.049,-1.033,1.028,9.986,36.698,-12.043
0.060,-1.035,1.034,12.087,49.643,-12.349
0.071,-1.035,1.039,13.782,63.111,-12.700
0.082,-1.034,1.045,15.171,77.224,-13.055
0.093,-1.031,1.049,16.308,92.066,-13.410
0.104,-1.026,1.051,17.232,107.645,-13.739
0.114,-1.020,1.050,17.942,124.664,-14.059
0.123,-1.012,1.045,18.509,141.981,-14.396
0.132,-1.004,1.037,19.024,159.451,-14.722
0.139,-0.994,1.024,20.406,176.834,-15.030
0.144,-0.984,1.008,21.045,193.810,-15.365
0.149,-0.973,0.990,21.733,210.294,-15.764
0.153,-0.962,0.970,22.489,226.155,-16.252
0.155,-0.950,0.948,23.259,241.493,-16.900
0.154,-0.936,0.926,23.928,254.876,-18.612
0.153,-0.917,0.903,23.541,261.692,-22.648
0.150,-0.889,0.882,20.986,265.247,-24.502
0.150,-0.878,0.852,20.055,275.296,-29.044
0.154,-0.869,0.826,19.113,284.224,-31.505
0.146,-0.857,0.800,18.052,291.114,-33.104
0.144,-0.847,0.768,17.527,301.893,-35.069
0.145,-0.842,0.737,17.710,314.466,-37.410
0.143,-0.837,0.706,18.244,326.703,-39.124
0.139,-0.831,0.673,18.662,338.111,-40.187
0.136,-0.827,0.641,18.624,348.977,-40.469
0.131,-0.823,0.611,18.512,357.403,-40.616
0.127,-0.821,0.579,18.363,361.774,-41.072
0.125,-0.820,0.548,18.163,361.403,-42.327
0.124,-0.820,0.518,18.024,358.838,-44.363
0.126,-0.822,0.489,18.238,355.063,-46.953
0.129,-0.824,0.462,19.004,350.036,-49.757
0.129,-0.824,0.435,20.102,344.305,-52.478
0.133,-0.822,0.408,20.829,336.758,-54.585
0.129,-0.819,0.379,21.001,327.468,-56.056
0.125,-0.816,0.349,20.792,316.593,-56.638
0.122,-0.814,0.319,20.270,305.405,-56.401
0.117,-0.815,0.288,19.482,294.243,-56.133
0.114,-0.808,0.261,17.712,283.837,-55.641
0.107,-0.816,0.234,16.213,273.992,-54.766
0.102,-0.823,0.206,15.609,264.980,-53.576
0.093,-0.830,0.181,14.787,257.064,-52.107
0.086,-0.836,0.156,14.303,250.179,-50.781
0.077,-0.841,0.133,13.916,243.247,-49.349
0.068,-0.847,0.111,13.725,235.705,-47.763
0.057,-0.854,0.088,14.095,228.395,-47.027
0.051,-0.857,0.069,14.765,220.558,-45.924
0.038,-0.854,0.052,15.761,213.927,-44.242
0.018,-0.868,0.035,16.549,205.342,-41.721
0.009,-0.871,0.022,20.448,200.084,-41.231
-0.005,-0.858,0.015,22.852,194.858,-41.546
-0.025,-0.850,0.007,22.653,184.713,-39.771
-0.043,-0.860,0.002,22.485,175.228,-38.449
-0.055,-0.861,-0.001,22.641,167.530,-37.608
-0.068,-0.856,-0.002,22.390,158.852,-36.995
-0.084,-0.854,-0.002,21.423,149.452,-36.201
-0.099,-0.858,-0.001,20.083,140.991,-35.023
-0.111,-0.863,-0.001,19.227,133.765,-33.507
-0.124,-0.868,-0.000,18.824,127.493,-31.661
-0.138,-0.873,-0.001,18.781,122.446,-29.588
-0.150,-0.877,-0.001,19.136,118.019,-27.647
-0.162,-0.879,-0.001,19.670,114.047,-25.930
-0.174,-0.880,-0.000,20.081,110.335,-24.463
-0.186,-0.879,0.001,20.319,106.768,-23.333
-0.196,-0.878,0.003,20.370,103.574,-21.991
-0.207,-0.878,0.005,20.473,100.701,-21.542
-0.218,-0.875,0.005,19.524,95.622,-21.492
-0.224,-0.875,0.011,19.172,93.260,-21.065
-0.236,-0.881,0.013,18.476,89.474,-20.462
-0.246,-0.881,0.015,17.715,85.990,-20.215
-0.253,-0.878,0.018,16.834,82.722,-20.099
-0.261,-0.879,0.020,15.994,79.658,-19.867
-0.269,-0.884,0.022,15.649,76.939,-19.402
-0.276,-0.887,0.023,15.620,74.452,-18.980
-0.283,-0.888,0.024,15.634,72.053,-18.604
-0.289,-0.887,0.026,15.522,69.655,-18.258
-0.294,-0.887,0.028,15.305,67.272,-17.973
-0.298,-0.888,0.030,14.985,64.883,-17.774
-0.302,-0.888,0.032,14.571,62.567,-17.626
-0.306,-0.888,0.035,14.031,60.254,-17.463
-0.311,-0.889,0.038,13.399,57.997,-17.237
-0.315,-0.890,0.040,12.739,55.820,-16.909
-0.320,-0.892,0.042,12.113,53.721,-16.459
-0.324,-0.893,0.044,11.577,51.715,-15.865
-0.328,-0.894,0.045,11.125,49.825,-15.226
-0.331,-0.895,0.046,10.773,48.044,-14.574
-0.335,-0.896,0.048,10.510,46.358,-13.938
-0.339,-0.896,0.049,10.311,44.712,-13.356
-0.342,-0.895,0.050,10.180,43.099,-12.853
-0.346,-0.895,0.053,10.113,41.508,-12.444
-0.349,-0.896,0.055,10.098,39.967,-12.087
-0.353,-0.896,0.056,10.133,38.475,-11.786
-0.356,-0.896,0.058,10.192,37.040,-11.527
-0.360,-0.896,0.060,10.239,35.657,-11.296
-0.363,-0.896,0.062,10.209,34.315,-11.080
-0.367,-0.895,0.063,10.134,33.019,-10.860
-0.370,-0.895,0.065,10.011,31.758,-10.605
-0.374,-0.895,0.066,9.833,30.522,-10.301
-0.377,-0.894,0.068,9.602,29.302,-9.948
-0.380,-0.894,0.069,9.309,28.089,-9.542
-0.383,-0.894,0.072,8.932,26.880,-9.121
-0.385,-0.893,0.074,8.459,25.680,-8.732
-0.387,-0.893,0.076,7.955,24.494,-8.399
-0.389,-0.893,0.078,7.444,23.323,-8.120
-0.391,-0.893,0.079,6.968,22.185,-7.881
-0.394,-0.893,0.081,6.513,21.100,-7.671
-0.396,-0.893,0.082,6.091,20.076,-7.484
-0.397,-0.894,0.084,5.724,19.123,-7.319
-0.399,-0.895,0.085,5.411,18.240,-7.166
-0.401,-0.895,0.087,5.140,17.418,-7.021
-0.403,-0.895,0.089,4.915,16.638,-6.886
-0.404,-0.895,0.091,4.719,15.892,-6.757
-0.406,-0.896,0.094,4.540,15.167,-6.630
-0.408,-0.896,0.096,4.384,14.474,-6.497
-0.409,-0.896,0.098,4.239,13.801,-6.356
-0.410,-0.897,0.099,4.118,13.163,-6.199
-0.412,-0.898,0.101,3.993,12.553,-6.010
-0.413,-0.898,0.103,3.887,11.987,-5.793
-0.414,-0.899,0.104,3.785,11.450,-5.575
-0.415,-0.899,0.106,3.700,10.954,-5.354
-0.416,-0.899,0.107,3.625,10.505,-5.134
-0.417,-0.900,0.108,3.576,10.093,-4.921
-0.418,-0.899,0.109,3.548,9.708,-4.723
-0.419,-0.899,0.110,3.561,9.347,-4.545
-0.420,-0.899,0.112,3.613,9.005,-4.381
-0.421,-0.899,0.113,3.696,8.670,-4.230
-0.423,-0.899,0.114,3.788,8.327,-4.084
-0.424,-0.899,0.116,3.876,7.977,-3.940
-0.425,-0.898,0.117,3.937,7.622,-3.789
-0.426,-0.898,0.118,3.970,7.268,-3.644
-0.426,-0.898,0.119,3.962,6.913,-3.506
-0.427,-0.897,0.120,3.886,6.561,-3.376
-0.428,-0.897,0.121,3.770,6.214,-3.254
-0.428,-0.897,0.121,3.646,5.891,-3.153
-0.429,-0.896,0.121,3.532,5.596,-3.606
-0.430,-0.896,0.122,3.404,5.315,-3.524
-0.431,-0.895,0.123,3.268,5.039,-3.448
-0.431,-0.895,0.123,3.135,4.767,-3.379
-0.432,-0.895,0.124,3.017,4.499,-3.314
-0.433,-0.894,0.124,2.907,4.232,-3.250
-0.433,-0.894,0.125,2.793,3.964,-3.185
-0.434,-0.894,0.126,2.671,3.695,-3.114
-0.434,-0.893,0.127,2.539,3.407,-3.035
-0.435,-0.893,0.127,2.381,3.107,-2.951
-0.435,-0.893,0.127,2.232,2.816,-2.863
-0.436,-0.893,0.127,2.106,2.553,-2.779
-0.436,-0.893,0.126,2.002,2.304,-2.694
-0.436,-0.893,0.127,1.912,2.073,-2.603
-0.437,-0.893,0.127,1.853,1.859,-2.509
-0.437,-0.892,0.127,1.831,1.653,-2.416
-0.437,-0.892,0.127,1.822,1.444,-2.317
-0.437,-0.892,0.127,1.833,1.235,-2.220
-0.438,-0.891,0.127,1.843,1.029,-2.118
-0.438,-0.891,0.127,1.850,0.819,-2.026
-0.439,-0.891,0.128,1.831,0.589,-1.928
-0.439,-0.890,0.129,1.789,0.341,-1.831
-0.440,-0.890,0.130,1.729,0.085,-1.728
-0.441,-0.890,0.131,1.635,-0.181,-1.630
-0.441,-0.889,0.131,1.505,-0.451,-1.543
-0.442,-0.889,0.131,1.354,-0.710,-1.473
-0.443,-0.889,0.132,1.190,-0.960,-1.420
-0.444,-0.889,0.132,1.037,-1.202,-1.391
-0.444,-0.889,0.132,0.918,-1.424,-1.375
-0.445,-0.889,0.132,0.820,-1.631,-1.368
-0.445,-0.889,0.133,0.743,-1.819,-1.371
-0.446,-0.889,0.134,0.680,-1.995,-1.372
-0.446,-0.890,0.135,0.629,-2.154,-1.365
-0.446,-0.890,0.136,0.583,-2.297,-1.346
-0.447,-0.890,0.137,0.529,-2.424,-1.308
-0.447,-0.890,0.137,0.448,-2.533,-1.257
-0.446,-0.890,0.138,0.351,-2.640,-1.193
-0.446,-0.890,0.139,0.257,-2.745,-1.126
-0.446,-0.890,0.139,0.180,-2.853,-1.058
-0.446,-0.890,0.140,0.113,-2.970,-0.991
-0.446,-0.890,0.140,0.060,-3.095,-0.932
-0.446,-0.890,0.141,0.024,-3.234,-0.875
-0.446,-0.890,0.141,0.000,-3.387,-0.820
-0.446,-0.890,0.142,-0.017,-3.550,-0.769
-0.446,-0.890,0.142,-0.026,-3.727,-0.720

-0.454,-0.819,0.586,-4.968,-14.957,-1.891
-0.448,-0.824,0.589,-8.938,-24.392,-3.156
-0.443,-0.829,0.591,-12.096,-31.813,-4.504
-0.436,-0.834,0.593,-14.623,-38.056,-5.916
-0.429,-0.841,0.597,-16.600,-43.698,-7.358
-0.420,-0.850,0.604,-18.157,-47.449,-8.792
-0.409,-0.861,0.613,-19.242,-51.779,-10.237
-0.397,-0.872,0.622,-19.876,-55.112,-11.674
-0.383,-0.884,0.633,-20.040,-57.655,-13.026
-0.369,-0.896,0.644,-19.883,-59.210,-14.136
-0.353,-0.908,0.654,-19.545,-59.475,-14.930
-0.338,-0.918,0.664,-19.090,-59.086,-15.245
-0.324,-0.927,0.673,-18.567,-58.303,-15.243
-0.310,-0.934,0.682,-18.042,-57.231,-14.992
-0.295,-0.941,0.690,-17.522,-55.877,-14.525
-0.279,-0.948,0.698,-17.039,-54.365,-13.773
-0.262,-0.954,0.707,-16.655,-52.352,-12.880
-0.246,-0.960,0.715,-16.383,-49.784,-11.907
-0.230,-0.966,0.723,-16.212,-46.426,-10.907
-0.214,-0.971,0.731,-16.145,-42.513,-9.925
-0.198,-0.976,0.740,-16.214,-38.018,-8.972
-0.183,-0.981,0.747,-16.351,-32.888,-7.995
-0.168,-0.985,0.754,-16.463,-26.694,-6.949
-0.153,-0.989,0.759,-16.485,-19.789,-5.807
-0.139,-0.992,0.763,-16.301,-12.300,-4.505
-0.125,-0.994,0.765,-15.947,-4.294,-3.124
-0.112,-0.995,0.768,-15.460,4.693,-1.661
-0.099,-0.996,0.769,-14.814,14.238,-0.094
-0.086,-0.996,0.771,-14.012,24.161,1.538
-0.074,-0.996,0.772,-12.960,34.369,3.139
-0.061,-0.995,0.774,-11.726,44.818,4.673
-0.050,-0.995,0.775,-10.311,55.440,6.143
-0.039,-0.994,0.776,-8.797,66.743,7.551
-0.029,-0.993,0.777,-7.247,78.293,8.894
-0.020,-0.991,0.776,-5.601,90.051,10.181
-0.013,-0.988,0.775,-3.597,102.075,11.361
-0.006,-0.985,0.772,-1.341,114.293,12.426
-0.002,-0.980,0.768,1.029,127.181,13.326
0.001,-0.976,0.763,3.516,139.928,14.021
0.002,-0.971,0.755,6.189,151.629,13.855
0.005,-0.963,0.747,7.949,161.216,12.924
0.000,-0.955,0.735,9.484,173.491,12.846
0.004,-0.952,0.721,12.610,184.830,12.150
-0.004,-0.945,0.712,14.514,194.429,12.875
-0.012,-0.947,0.700,17.418,205.966,13.092
-0.013,-0.952,0.689,22.429,220.169,12.778
-0.016,-0.954,0.677,28.689,233.274,12.223
-0.022,-0.950,0.665,34.505,243.921,11.649
-0.029,-0.945,0.651,37.430,252.785,11.068
-0.037,-0.938,0.635,39.341,259.758,10.421
-0.044,-0.932,0.616,40.048,265.366,9.597
-0.049,-0.927,0.595,39.956,269.586,8.649
-0.054,-0.924,0.572,39.466,272.271,7.611
-0.059,-0.921,0.548,38.813,273.802,6.395
-0.065,-0.920,0.523,38.034,273.763,5.273
-0.072,-0.920,0.496,37.024,272.259,4.340
-0.077,-0.920,0.469,35.905,270.095,3.583
-0.081,-0.921,0.442,34.940,267.404,2.844
-0.084,-0.922,0.414,34.172,264.123,2.156
-0.089,-0.923,0.385,33.486,260.013,1.499
-0.094,-0.922,0.356,32.850,255.250,0.866
-0.100,-0.921,0.327,32.200,249.771,0.309
-0.108,-0.919,0.298,31.543,243.756,-0.164
-0.115,-0.917,0.270,30.896,237.436,-0.480
-0.124,-0.915,0.243,30.305,230.906,-0.688
-0.131,-0.913,0.217,29.771,224.255,-0.782
-0.138,-0.912,0.192,29.318,217.715,-0.802
-0.145,-0.911,0.168,28.935,211.350,-0.746
-0.152,-0.910,0.144,28.652,205.202,-0.629
-0.160,-0.907,0.121,28.457,199.306,-0.765
-0.167,-0.904,0.098,28.142,193.650,-0.537
-0.181,-0.908,0.075,27.807,188.235,0.341
-0.186,-0.907,0.056,28.677,183.034,0.630
-0.197,-0.903,0.039,28.796,178.170,1.295
-0.205,-0.898,0.022,29.031,173.576,1.914
-0.212,-0.896,0.006,29.076,169.130,1.800
-0.219,-0.890,-0.008,29.203,164.858,1.134
-0.226,-0.883,-0.020,29.085,160.750,0.322
-0.235,-0.877,-0.031,28.815,156.844,-0.324
-0.244,-0.872,-0.040,28.540,153.099,-0.742
-0.253,-0.869,-0.049,28.298,149.427,-0.921
-0.262,-0.865,-0.058,27.942,145.489,-0.980
-0.271,-0.860,-0.066,27.492,141.273,-1.098
-0.279,-0.856,-0.074,27.008,137.282,-1.407
-0.287,-0.852,-0.081,26.539,133.556,-1.937
-0.294,-0.849,-0.086,26.122,130.100,-2.528
-0.302,-0.847,-0.090,25.769,126.870,-2.942
-0.310,-0.846,-0.093,25.471,123.646,-3.065
-0.319,-0.845,-0.096,25.191,120.046,-2.871
-0.328,-0.844,-0.098,24.901,116.027,-2.371
-0.336,-0.843,-0.099,24.625,112.087,-1.589
-0.342,-0.842,-0.101,24.428,108.481,-0.742
-0.349,-0.842,-0.102,24.284,105.155,0.117
-0.356,-0.840,-0.103,24.129,101.876,0.847
-0.363,-0.838,-0.105,23.904,98.611,1.378
-0.370,-0.835,-0.107,23.512,95.372,1.589
-0.376,-0.832,-0.108,23.003,92.177,1.568
-0.382,-0.829,-0.109,22.348,89.099,1.358
-0.388,-0.827,-0.109,21.630,86.209,0.989
-0.393,-0.826,-0.109,20.941,83.462,0.518
-0.399,-0.825,-0.109,20.307,80.807,0.416
-0.406,-0.826,-0.109,19.817,78.120,-0.171
-0.411,-0.822,-0.106,18.457,74.330,-1.127
-0.415,-0.820,-0.097,17.804,72.750,-1.402
-0.421,-0.825,-0.100,16.918,69.319,-1.379
-0.429,-0.828,-0.099,16.045,66.145,-1.448
-0.431,-0.827,-0.097,15.218,63.665,-1.612
-0.436,-0.827,-0.095,14.389,61.113,-1.704
-0.440,-0.829,-0.095,13.677,58.731,-1.727
-0.444,-0.830,-0.095,13.111,56.408,-1.811
-0.448,-0.830,-0.095,12.656,54.310,-1.945
-0.451,-0.831,-0.095,12.208,52.254,-2.069
-0.454,-0.832,-0.094,11.826,50.313,-2.198
-0.457,-0.833,-0.093,11.580,48.438,-2.412
-0.460,-0.833,-0.092,11.381,46.584,-2.655
-0.463,-0.834,-0.091,11.204,44.769,-2.841
-0.466,-0.835,-0.089,11.081,43.020,-2.943
-0.469,-0.837,-0.088,11.002,41.322,-2.965
-0.472,-0.838,-0.086,10.928,39.670,-2.930
-0.475,-0.839,-0.085,10.817,38.041,-2.860
-0.478,-0.839,-0.082,10.673,36.427,-2.806
-0.480,-0.839,-0.080,10.485,34.820,-2.794
-0.482,-0.839,-0.078,10.225,33.246,-2.823
-0.484,-0.840,-0.076,9.940,31.737,-2.888
-0.485,-0.841,-0.075,9.667,30.326,-2.977
-0.487,-0.842,-0.074,9.437,29.030,-3.047
-0.489,-0.843,-0.072,9.264,27.876,-3.080
-0.490,-0.844,-0.071,9.168,26.808,-3.062
-0.492,-0.845,-0.070,9.135,25.793,-2.975
-0.494,-0.846,-0.068,9.131,24.792,-2.846
-0.496,-0.846,-0.067,9.141,23.800,-2.685
-0.497,-0.847,-0.065,9.170,22.830,-2.506
-0.499,-0.848,-0.064,9.224,21.864,-2.313
-0.500,-0.848,-0.062,9.262,20.900,-2.103
-0.501,-0.848,-0.060,9.243,19.939,-1.907
-0.503,-0.847,-0.058,9.169,19.002,-1.745
-0.504,-0.847,-0.056,9.070,18.101,-1.625
-0.505,-0.847,-0.054,8.938,17.234,-1.538
-0.506,-0.846,-0.052,8.734,16.374,-1.481
-0.507,-0.846,-0.050,8.462,15.529,-1.433
-0.508,-0.846,-0.049,8.174,14.721,-1.387
-0.509,-0.845,-0.048,7.915,13.945,-1.346
-0.511,-0.845,-0.047,7.687,13.207,-1.303
-0.511,-0.845,-0.045,7.476,12.519,-1.253
-0.512,-0.845,-0.042,7.288,11.875,-1.195
-0.513,-0.846,-0.040,7.100,11.234,-1.124
-0.514,-0.846,-0.038,6.903,10.627,-1.052
-0.515,-0.846,-0.036,6.725,10.072,-0.986
-0.515,-0.846,-0.034,6.582,9.585,-0.932
-0.516,-0.846,-0.033,6.483,9.170,-0.888
-0.517,-0.846,-0.031,6.406,8.802,-0.832
-0.518,-0.846,-0.029,6.327,8.448,-0.752
-0.519,-0.845,-0.027,6.232,8.103,-0.657
-0.520,-0.845,-0.026,6.137,7.764,-0.549
-0.520,-0.844,-0.024,6.059,7.421,-0.446
-0.521,-0.844,-0.023,5.971,7.076,-0.339
-0.522,-0.844,-0.022,5.893,6.740,-0.238
-0.522,-0.844,-0.021,5.827,6.404,-0.154
-0.523,-0.843,-0.020,5.745,6.059,-0.087
-0.524,-0.843,-0.018,5.639,5.704,-0.037
-0.524,-0.842,-0.017,5.489,5.341,-0.003
-0.525,-0.842,-0.016,5.303,4.988,-0.001
-0.525,-0.841,-0.016,5.113,4.666,-0.010
-0.526,-0.841,-0.015,4.923,4.371,-0.029
-0.526,-0.841,-0.014,4.712,4.109,-0.052
-0.527,-0.841,-0.013,4.486,3.870,-0.072
-0.527,-0.840,-0.012,4.250,3.643,-0.090
-0.528,-0.840,-0.011,4.030,3.437,-0.095
-0.528,-0.840,-0.011,3.822,3.242,-0.094
-0.529,-0.839,-0.010,3.646,3.048,-0.093
-0.530,-0.839,-0.010,3.492,2.849,-0.096
-0.531,-0.839,-0.010,3.393,2.653,-0.099
-0.531,-0.839,-0.010,3.323,2.438,-0.108
-0.532,-0.839,-0.009,3.277,2.213,-0.125
-0.533,-0.839,-0.009,3.248,1.991,-0.143
-0.533,-0.839,-0.009,3.238,1.771,-0.177
-0.533,-0.839,-0.008,3.221,1.557,-0.217
-0.534,-0.838,-0.008,3.191,1.343,-0.266
-0.534,-0.838,-0.007,3.124,1.127,-0.319
-0.534,-0.838,-0.006,3.039,0.920,-0.376
-0.535,-0.838,-0.006,2.912,0.725,-0.428
-0.535,-0.838,-0.005,2.779,0.563,-0.471
-0.535,-0.838,-0.009,2.657,0.443,-0.508
-0.535,-0.838,-0.009,2.561,0.336,-0.532
-0.535,-0.839,-0.008,2.480,0.235,-0.544
-0.536,-0.839,-0.008,2.403,0.129,-0.528
-0.536,-0.839,-0.008,2.328,0.020,-0.494
-0.536,-0.840,-0.008,2.266,-0.097,-0.444
-0.536,-0.840,-0.007,2.207,-0.225,-0.384
-0.536,-0.840,-0.007,2.151,-0.374,-0.313
-0.536,-0.840,-0.007,2.073,-0.556,-0.245
-0.537,-0.840,-0.006,1.967,-0.787,-0.187
-0.537,-0.840,-0.006,1.821,-1.044,-0.134
-0.537,-0.841,-0.005,1.621,-1.312,-0.086
-0.537,-0.841,-0.005,1.397,-1.586,-0.050
-0.537,-0.841,-0.004,1.153,-1.863,-0.010
-0.537,-0.842,-0.004,0.908,-2.136,0.044
-0.536,-0.842,-0.004,0.656,-2.400,0.119
-0.536,-0.843,-0.004,0.416,-2.653,0.216

-0.438,-0.854,0.573,-3.525,-24.444,-0.751
-0.426,-0.859,0.593,-7.424,-39.131,-1.629
-0.424,-0.866,0.607,-10.631,-60.224,-1.771
-0.422,-0.875,0.626,-13.037,-79.224,-1.720
-0.404,-0.885,0.649,-14.142,-87.539,-1.887
-0.382,-0.894,0.675,-14.493,-90.868,-2.524
-0.362,-0.902,0.704,-14.746,-92.306,-3.365
-0.344,-0.910,0.735,-15.240,-93.262,-4.032
-0.328,-0.919,0.769,-16.284,-92.960,-4.365
-0.306,-0.928,0.799,-17.401,-91.098,-4.397
-0.279,-0.940,0.826,-17.918,-88.621,-4.279
-0.252,-0.951,0.850,-17.936,-84.508,-3.892
-0.225,-0.959,0.867,-17.593,-77.806,-3.029
-0.201,-0.963,0.879,-16.965,-68.504,-1.340
-0.179,-0.967,0.887,-15.911,-56.938,0.912
-0.159,-0.969,0.894,-14.491,-42.441,3.446
-0.140,-0.971,0.899,-12.650,-26.349,5.954
-0.124,-0.971,0.904,-10.211,-9.070,7.960
-0.110,-0.970,0.908,-7.388,8.779,9.439
-0.098,-0.967,0.912,-4.497,28.130,10.431
-0.089,-0.961,0.917,-1.973,47.505,11.092
-0.081,-0.954,0.921,-0.071,66.785,11.497
-0.073,-0.947,0.923,1.411,85.791,11.634
-0.065,-0.941,0.922,2.798,105.007,11.710
-0.057,-0.936,0.917,4.178,124.746,11.798
-0.051,-0.930,0.907,5.581,144.731,11.924
-0.048,-0.924,0.894,7.059,165.240,12.012
-0.047,-0.918,0.880,8.422,184.822,12.094
-0.047,-0.910,0.864,9.605,204.238,12.034
-0.047,-0.902,0.848,10.356,222.238,11.684
-0.048,-0.893,0.831,10.718,237.565,11.072
-0.050,-0.886,0.815,10.807,250.970,10.101
-0.052,-0.880,0.798,10.610,262.177,8.813
-0.053,-0.874,0.777,10.030,270.955,7.411
-0.054,-0.870,0.755,8.841,278.464,6.168
-0.055,-0.867,0.730,7.097,284.186,5.104
-0.053,-0.867,0.702,5.221,288.791,4.235
-0.052,-0.867,0.672,3.602,292.155,3.555
-0.051,-0.867,0.637,2.561,294.563,3.113
-0.052,-0.869,0.599,2.148,295.655,2.932
-0.050,-0.870,0.560,2.450,295.254,2.878
-0.054,-0.870,0.520,3.276,292.495,3.054
-0.056,-0.867,0.482,5.125,289.285,3.374
-0.057,-0.863,0.446,7.318,285.504,3.840
-0.058,-0.857,0.410,9.785,280.065,4.246
-0.061,-0.851,0.373,12.040,272.967,4.630
-0.067,-0.846,0.337,14.128,265.318,4.971
-0.073,-0.843,0.300,16.143,257.451,5.259
-0.079,-0.841,0.265,18.039,249.676,5.468
-0.087,-0.840,0.230,19.804,242.089,5.638
-0.095,-0.839,0.197,21.512,234.813,5.789
-0.103,-0.839,0.166,23.182,227.899,5.919
-0.112,-0.839,0.138,24.702,221.378,6.035
-0.121,-0.838,0.113,25.946,215.271,6.165
-0.132,-0.836,0.088,26.822,209.489,6.228
-0.140,-0.834,0.064,27.149,204.407,5.833
-0.151,-0.824,0.045,26.410,198.201,6.420
-0.171,-0.832,0.030,26.527,193.106,7.255
-0.179,-0.835,0.008,27.377,188.503,7.627
-0.197,-0.830,-0.012,27.491,181.835,8.393
-0.210,-0.825,-0.030,27.329,176.765,8.943
-0.221,-0.823,-0.047,27.548,172.169,8.887
-0.233,-0.819,-0.063,27.731,167.546,8.392
-0.246,-0.813,-0.077,27.597,162.519,7.706
-0.258,-0.811,-0.089,27.491,157.971,6.702
-0.269,-0.809,-0.099,27.609,153.854,5.365
-0.280,-0.806,-0.108,27.644,149.978,3.776
-0.290,-0.802,-0.115,27.407,145.979,1.873
-0.300,-0.797,-0.122,26.925,141.465,-0.448
-0.309,-0.793,-0.129,26.127,136.996,-3.005
-0.317,-0.790,-0.135,25.116,132.491,-5.560
-0.325,-0.789,-0.140,24.025,127.989,-7.478
-0.333,-0.791,-0.146,23.154,123.733,-8.695
-0.341,-0.794,-0.149,22.622,120.115,-9.349
-0.349,-0.798,-0.152,22.295,116.748,-9.548
-0.357,-0.800,-0.156,22.076,113.165,-9.175
-0.366,-0.803,-0.160,21.962,109.010,-8.355
-0.375,-0.806,-0.163,22.032,104.589,-7.066
-0.381,-0.810,-0.165,22.400,100.692,-5.432
-0.387,-0.812,-0.166,23.047,97.305,-3.753
-0.393,-0.811,-0.167,23.830,94.193,-2.405
-0.399,-0.808,-0.169,24.466,91.111,-1.404
-0.405,-0.805,-0.170,24.876,87.912,-0.757
-0.411,-0.802,-0.170,25.031,84.633,-0.423
-0.417,-0.800,-0.171,24.932,81.328,-0.409
-0.423,-0.798,-0.170,24.704,78.027,-0.575
-0.428,-0.798,-0.165,24.378,74.889,-0.861
-0.433,-0.798,-0.163,23.990,71.779,-1.215
-0.438,-0.798,-0.161,23.515,68.596,-1.596
-0.444,-0.799,-0.159,22.769,65.275,-1.919
-0.448,-0.800,-0.157,21.787,61.798,-1.849
-0.454,-0.801,-0.155,20.912,59.302,-2.315
-0.456,-0.798,-0.161,19.169,53.959,-3.133
-0.458,-0.803,-0.150,17.777,52.806,-3.242
-0.461,-0.806,-0.154,16.615,49.227,-3.341
-0.470,-0.806,-0.152,15.301,45.934,-3.573
-0.471,-0.802,-0.151,14.090,43.391,-3.907
-0.474,-0.802,-0.150,13.071,41.101,-4.103
-0.478,-0.805,-0.149,12.385,38.946,-4.140
-0.481,-0.807,-0.147,12.002,37.017,-4.082
-0.484,-0.809,-0.145,11.800,35.203,-3.924
-0.487,-0.810,-0.143,11.695,33.446,-3.755
-0.489,-0.811,-0.141,11.584,31.646,-3.574
-0.491,-0.812,-0.140,11.515,29.941,-3.416
-0.493,-0.813,-0.139,11.539,28.398,-3.258
-0.494,-0.815,-0.137,11.669,26.958,-3.064
-0.496,-0.816,-0.135,11.835,25.598,-2.849
-0.498,-0.816,-0.134,11.980,24.292,-2.654
-0.501,-0.815,-0.132,12.083,23.008,-2.547
-0.503,-0.813,-0.130,12.115,21.724,-2.537
-0.504,-0.812,-0.127,12.070,20.436,-2.616
-0.506,-0.811,-0.124,11.967,19.191,-2.811
-0.508,-0.810,-0.121,11.864,18.002,-3.072
-0.509,-0.810,-0.118,11.765,16.849,-3.309
-0.510,-0.811,-0.114,11.664,15.654,-3.501
-0.512,-0.812,-0.110,11.542,14.587,-3.548
-0.514,-0.814,-0.107,11.471,13.612,-3.438
-0.515,-0.815,-0.105,11.452,12.704,-3.253
-0.516,-0.815,-0.103,11.443,11.833,-3.009
-0.518,-0.815,-0.100,11.405,10.942,-2.723
-0.519,-0.815,-0.097,11.309,10.050,-2.380
-0.521,-0.815,-0.095,11.166,9.174,-2.047
-0.522,-0.814,-0.093,11.013,8.328,-1.772
-0.523,-0.813,-0.091,10.845,7.477,-1.588
-0.524,-0.812,-0.089,10.634,6.633,-1.511
-0.524,-0.811,-0.085,10.376,5.815,-1.552
-0.525,-0.811,-0.082,10.098,5.012,-1.654
-0.526,-0.811,-0.079,9.797,3.330,-1.776
-0.527,-0.812,-0.077,9.497,2.511,-1.887
-0.528,-0.812,-0.074,9.178,1.717,-1.977
-0.529,-0.812,-0.071,8.857,0.951,-2.046
-0.530,-0.813,-0.068,8.516,0.219,-2.088
-0.531,-0.813,-0.064,8.142,-0.422,-2.108
-0.532,-0.814,-0.061,7.730,-1.029,-2.115
-0.533,-0.814,-0.057,7.263,-1.611,-2.102
-0.535,-0.815,-0.055,6.813,-2.136,-2.079
-0.536,-0.816,-0.054,6.453,-2.525,-2.063
-0.537,-0.817,-0.053,6.231,-2.806,-2.061
-0.537,-0.818,-0.051,6.178,-2.992,-2.084
-0.538,-0.819,-0.050,6.212,-3.109,-2.112
-0.539,-0.819,-0.047,6.309,-3.164,-2.135
-0.540,-0.819,-0.045,6.452,-3.203,-2.142
-0.541,-0.819,-0.043,6.624,-3.236,-2.133
-0.542,-0.819,-0.041,6.797,-3.271,-2.106
-0.543,-0.820,-0.039,6.955,-3.325,-2.068
-0.544,-0.820,-0.037,7.080,-3.404,-2.025
-0.545,-0.820,-0.035,7.154,-3.503,-1.964
-0.546,-0.821,-0.034,7.185,-3.621,-1.902
-0.547,-0.821,-0.032,7.162,-3.757,-1.857
-0.548,-0.821,-0.029,7.051,-3.902,-1.838
-0.548,-0.821,-0.027,6.862,-4.039,-1.839
-0.549,-0.821,-0.025,6.621,-4.164,-1.872
-0.549,-0.821,-0.023,6.326,-4.272,-1.930
-0.550,-0.822,-0.021,5.981,-4.344,-2.017
-0.551,-0.822,-0.020,5.600,-4.383,-2.115
-0.551,-0.823,-0.018,5.199,-4.400,-2.217
-0.552,-0.823,-0.016,4.792,-4.400,-2.318
-0.552,-0.824,-0.015,4.418,-4.398,-2.399
-0.553,-0.825,-0.013,4.073,-4.401,-2.458
-0.553,-0.825,-0.012,3.767,-4.412,-2.491
-0.554,-0.826,-0.011,3.486,-4.425,-2.497
-0.554,-0.827,-0.010,3.280,-4.429,-2.478
-0.554,-0.828,-0.010,3.132,-4.435,-2.451
-0.555,-0.829,-0.009,3.022,-4.450,-2.409
-0.555,-0.830,-0.008,2.946,-4.459,-2.368
-0.555,-0.830,-0.008,2.915,-4.469,-2.336
-0.555,-0.831,-0.007,2.892,-4.474,-2.324
-0.555,-0.831,-0.006,2.861,-4.465,-2.329
-0.556,-0.831,-0.005,2.818,-4.450,-2.345
-0.556,-0.832,-0.005,2.723,-4.436,-2.381
-0.556,-0.832,-0.004,2.602,-4.413,-2.420
-0.557,-0.833,-0.003,2.454,-4.374,-2.452
-0.557,-0.833,-0.002,2.300,-4.322,-2.478
-0.557,-0.834,-0.001,2.143,-4.252,-2.481
-0.557,-0.835,-0.000,2.006,-4.161,-2.453
-0.557,-0.835,0.000,1.887,-4.065,-2.404
-0.557,-0.836,0.000,1.788,-3.981,-2.316
-0.558,-0.837,0.001,1.699,-3.898,-2.215
-0.558,-0.837,0.001,1.619,-3.835,-2.106
-0.558,-0.838,0.002,1.515,-3.795,-1.993
-0.558,-0.838,0.002,1.388,-3.773,-1.881
-0.559,-0.838,0.002,1.200,-3.758,-1.779
-0.559,-0.838,0.003,0.958,-3.754,-1.692
-0.559,-0.838,0.003,0.674,-3.757,-1.620
-0.558,-0.838,0.004,0.351,-3.764,-1.558
-0.558,-0.838,0.004,-0.001,-3.769,-1.512
-0.558,-0.838,0.004,-0.339,-3.767,-1.464
-0.558,-0.839,0.004,-0.642,-3.761,-1.413
-0.557,-0.839,0.003,-0.887,-3.764,-1.355
-0.557,-0.839,0.003,-1.080,-3.793,-1.273
-0.557,-0.839,0.002,-1.229,-3.837,-1.183
-0.557,-0.840,0.001,-1.303,-3.897,-1.087
-0.557,-0.840,0.001,-1.335,-3.982,-0.983
-0.557,-0.840,0.000,-1.353,-4.083,-0.871
-0.557,-0.839,0.000,-1.378,-4.204,-0.759
-0.557,-0.839,0.000,-1.422,-4.347,-0.654
-0.557,-0.839,0.000,-1.501,-4.501,-0.552
-0.557,-0.838,0.000,-1.632,-4.653,-0.465
-0.556,-0.838,0.001,-1.795,-4.796,-0.393

-0.598,-0.822,0.443,-6.570,-23.298,-0.839
-0.594,-0.826,0.452,-10.812,-38.521,-1.460
-0.590,-0.828,0.460,-14.751,-50.914,-2.153
-0.586,-0.830,0.465,-18.537,-60.862,-2.888
-0.582,-0.830,0.468,-22.166,-69.628,-3.644
-0.579,-0.830,0.474,-25.691,-78.326,-4.481
-0.573,-0.834,0.482,-29.317,-87.384,-5.358
-0.562,-0.841,0.494,-32.778,-96.285,-6.289
-0.548,-0.852,0.508,-35.464,-104.096,-7.316
-0.531,-0.868,0.525,-36.997,-110.379,-8.448
-0.510,-0.886,0.544,-37.694,-113.777,-9.462
-0.487,-0.902,0.564,-37.758,-115.470,-10.319
-0.464,-0.916,0.585,-37.476,-115.468,-10.911
-0.439,-0.925,0.604,-37.062,-113.694,-11.297
-0.414,-0.932,0.622,-36.500,-110.917,-11.527
-0.389,-0.938,0.640,-35.820,-107.762,-11.592
-0.365,-0.943,0.658,-35.018,-104.640,-11.515
-0.340,-0.947,0.675,-34.102,-101.359,-11.415
-0.315,-0.951,0.691,-33.124,-95.487,-11.382
-0.290,-0.954,0.705,-32.023,-89.547,-11.421
-0.266,-0.957,0.718,-30.899,-82.613,-11.538
-0.241,-0.961,0.730,-29.828,-74.657,-11.722
-0.217,-0.964,0.742,-28.799,-65.336,-11.935
-0.193,-0.968,0.753,-27.869,-54.649,-12.178
-0.170,-0.971,0.763,-26.869,-42.785,-12.426
-0.148,-0.973,0.772,-25.800,-29.775,-12.642
-0.127,-0.975,0.780,-24.662,-14.943,-12.790
-0.108,-0.977,0.785,-23.336,0.565,-12.853
-0.090,-0.979,0.788,-21.621,16.879,-12.846
-0.074,-0.982,0.790,-19.256,33.947,-12.793
-0.059,-0.984,0.790,-16.508,54.319,-13.012
-0.044,-0.984,0.789,-14.030,72.050,-12.868
-0.031,-0.986,0.786,-10.718,91.377,-13.408
-0.020,-0.981,0.784,-8.319,111.118,-13.142
-0.015,-0.976,0.781,-6.295,131.025,-12.809
-0.007,-0.972,0.775,-4.174,153.244,-12.620
-0.002,-0.968,0.768,-2.070,174.193,-12.488
0.002,-0.960,0.759,-0.752,193.854,-12.381
0.004,-0.950,0.748,-0.315,211.011,-12.404
0.006,-0.941,0.736,-0.649,225.848,-12.461
0.007,-0.933,0.724,-1.603,239.012,-12.644
0.008,-0.927,0.712,-3.311,250.272,-12.848
0.009,-0.925,0.699,-5.539,260.497,-13.065
0.011,-0.924,0.683,-7.241,270.276,-13.344
0.013,-0.925,0.663,-8.067,279.502,-13.685
0.015,-0.927,0.639,-8.164,287.893,-13.903
0.017,-0.928,0.613,-7.757,295.285,-13.956
0.018,-0.928,0.584,-6.489,301.754,-13.995
0.019,-0.926,0.555,-4.842,306.222,-14.008
0.019,-0.924,0.525,-3.028,308.988,-14.009
0.016,-0.921,0.495,-1.417,308.843,-14.026
0.012,-0.918,0.465,-0.079,306.603,-14.158
0.009,-0.914,0.435,1.074,303.348,-14.409
0.006,-0.910,0.406,2.210,298.755,-14.881
0.003,-0.906,0.377,3.208,293.302,-15.562
-0.002,-0.903,0.349,4.266,287.369,-16.459
-0.004,-0.901,0.320,5.557,281.097,-17.687
-0.008,-0.899,0.290,6.937,274.345,-19.040
-0.011,-0.898,0.259,8.375,267.319,-20.481
-0.015,-0.898,0.226,9.834,260.003,-21.948
-0.018,-0.898,0.193,11.234,252.738,-23.296
-0.022,-0.899,0.161,12.596,245.532,-24.488
-0.025,-0.901,0.130,13.944,238.467,-25.449
-0.028,-0.904,0.101,15.304,231.603,-26.190
-0.031,-0.906,0.074,16.769,225.009,-26.658
-0.035,-0.909,0.050,18.337,218.736,-27.386
-0.039,-0.907,0.027,19.562,212.809,-28.182
-0.046,-0.907,0.000,21.033,207.785,-27.208
-0.044,-0.909,-0.014,24.790,202.214,-27.056
-0.054,-0.905,-0.033,26.196,196.727,-25.873
-0.059,-0.905,-0.048,27.089,191.470,-24.755
-0.063,-0.908,-0.064,28.592,186.281,-23.941
-0.067,-0.909,-0.077,30.395,180.929,-23.790
-0.072,-0.907,-0.088,31.322,175.182,-23.883
-0.077,-0.906,-0.098,31.659,169.310,-24.317
-0.083,-0.904,-0.106,31.656,163.542,-24.862
-0.090,-0.903,-0.113,31.334,157.765,-25.166
-0.099,-0.902,-0.119,30.864,152.150,-25.126
-0.107,-0.904,-0.123,30.325,146.770,-24.747
-0.116,-0.905,-0.127,29.782,141.534,-24.186
-0.125,-0.906,-0.130,29.278,136.533,-23.450
-0.133,-0.907,-0.132,28.821,131.801,-22.670
-0.141,-0.908,-0.134,28.439,127.270,-21.816
-0.150,-0.909,-0.135,28.133,122.871,-20.843
-0.158,-0.911,-0.136,27.912,118.457,-19.751
-0.167,-0.912,-0.136,27.676,113.916,-18.436
-0.176,-0.912,-0.136,27.426,109.370,-17.023
-0.184,-0.912,-0.135,27.205,105.061,-15.604
-0.191,-0.912,-0.134,27.042,101.050,-14.216
-0.198,-0.912,-0.131,26.883,97.310,-12.824
-0.205,-0.912,-0.129,26.760,93.731,-11.451
-0.212,-0.912,-0.126,26.603,90.235,-10.193
-0.219,-0.911,-0.122,26.356,86.691,-9.096
-0.227,-0.910,-0.119,25.971,83.103,-8.851
-0.234,-0.909,-0.116,25.426,79.534,-8.295
-0.240,-0.908,-0.113,24.754,76.010,-7.949
-0.247,-0.908,-0.109,23.993,72.643,-7.736
-0.253,-0.909,-0.106,23.197,69.464,-7.586
-0.259,-0.909,-0.102,22.424,66.470,-7.453
-0.265,-0.910,-0.098,21.670,63.573,-7.291
-0.271,-0.910,-0.094,20.913,60.777,-7.173
-0.275,-0.908,-0.089,19.967,57.535,-6.996
-0.283,-0.906,-0.082,18.776,54.109,-7.082
-0.289,-0.903,-0.079,17.669,51.705,-6.588
-0.292,-0.910,-0.075,16.627,49.852,-6.120
-0.300,-0.911,-0.069,15.328,45.963,-5.761
-0.302,-0.909,-0.066,13.909,43.630,-5.497
-0.305,-0.910,-0.064,12.747,41.404,-5.337
-0.310,-0.912,-0.062,11.905,39.336,-5.175
-0.313,-0.914,-0.060,11.360,37.509,-4.978
-0.317,-0.916,-0.057,11.041,35.934,-4.664
-0.321,-0.918,-0.054,10.908,34.444,-4.255
-0.325,-0.919,-0.052,10.867,32.999,-3.860
-0.328,-0.919,-0.049,10.852,31.603,-3.684
-0.331,-0.919,-0.047,10.816,30.269,-3.654
-0.334,-0.919,-0.044,10.747,28.961,-3.798
-0.337,-0.918,-0.041,10.652,27.714,-4.051
-0.340,-0.918,-0.039,10.500,26.456,-4.332
-0.342,-0.918,-0.036,10.217,25.190,-4.594
-0.345,-0.918,-0.034,9.861,23.905,-4.745
-0.348,-0.919,-0.032,9.500,22.694,-4.738
-0.350,-0.921,-0.030,9.213,21.535,-4.600
-0.352,-0.922,-0.029,8.970,20.404,-4.396
-0.354,-0.922,-0.027,8.701,19.301,-4.203
-0.355,-0.922,-0.026,8.440,18.218,-4.039
-0.357,-0.922,-0.024,8.229,17.192,-3.894
-0.358,-0.922,-0.021,8.065,16.233,-3.763
-0.359,-0.922,-0.019,7.954,15.343,-3.655
-0.360,-0.922,-0.017,7.875,14.510,-3.561
-0.361,-0.923,-0.014,7.789,13.739,-3.462
-0.362,-0.923,-0.012,7.665,12.999,-3.334
-0.364,-0.923,-0.010,7.492,12.271,-3.186
-0.364,-0.923,-0.008,7.252,11.567,-3.014
-0.365,-0.923,-0.006,6.993,10.905,-2.829
-0.366,-0.923,-0.004,6.730,10.282,-2.644
-0.368,-0.923,-0.003,6.471,9.675,-2.460
-0.369,-0.922,-0.001,6.205,9.080,-2.277
-0.370,-0.922,0.001,5.939,8.492,-2.097
-0.371,-0.922,0.002,5.688,7.910,-1.921
-0.373,-0.921,0.004,5.458,7.326,-1.765
-0.374,-0.921,0.006,5.251,6.735,-1.635
-0.375,-0.921,0.008,5.077,6.142,-1.537
-0.376,-0.921,0.009,4.896,5.562,-1.449
-0.377,-0.920,0.011,4.700,4.990,-1.375
-0.378,-0.920,0.012,4.498,4.439,-1.307
-0.379,-0.920,0.014,4.271,3.923,-1.241
-0.380,-0.920,0.015,4.066,3.434,-1.178
-0.381,-0.920,0.016,3.890,2.997,-1.113
-0.382,-0.920,0.017,3.757,2.622,-1.052
-0.383,-0.921,0.018,3.675,2.304,-0.998
-0.383,-0.921,0.019,3.639,2.047,-0.968
-0.384,-0.921,0.021,3.615,1.828,-0.949
-0.385,-0.921,0.023,3.569,1.636,-0.926
-0.385,-0.921,0.025,3.514,1.455,-0.907
-0.386,-0.921,0.026,3.467,1.301,-0.885
-0.386,-0.921,0.027,3.421,1.157,-0.852
-0.387,-0.921,0.029,3.363,1.023,-0.800
-0.387,-0.921,0.031,3.268,0.888,-0.716
-0.388,-0.921,0.032,3.141,0.743,-0.603
-0.388,-0.921,0.034,2.986,0.594,-0.473
-0.389,-0.921,0.035,2.813,0.430,-0.333
-0.390,-0.921,0.035,2.649,0.269,-0.204
-0.390,-0.921,0.036,2.502,0.114,-0.099
-0.391,-0.921,0.037,2.355,-0.048,-0.032
-0.392,-0.920,0.038,2.192,-0.215,0.010
-0.393,-0.920,0.039,2.005,-0.380,0.033
-0.394,-0.920,0.041,1.783,-0.546,0.045
-0.394,-0.920,0.042,1.515,-0.700,0.059
-0.395,-0.920,0.043,1.206,-0.843,0.080
-0.395,-0.920,0.044,0.847,-0.945,0.109
-0.396,-0.920,0.045,0.520,-1.007,0.149
-0.396,-0.920,0.045,0.257,-1.017,0.198
-0.397,-0.920,0.044,0.072,-0.968,0.260
-0.398,-0.920,0.044,-0.000,-0.837,0.277
-0.399,-0.920,0.043,0.372,-0.995,0.434
-0.397,-0.920,0.045,0.617,-0.626,0.376
-0.400,-0.918,0.045,0.439,-0.912,0.638
-0.402,-0.918,0.046,0.267,-0.970,0.797
-0.400,-0.920,0.047,0.349,-0.908,0.720
-0.399,-0.920,0.048,0.468,-0.906,0.531
-0.400,-0.919,0.049,0.341,-0.946,0.438
-0.400,-0.918,0.049,0.092,-1.040,0.382
-0.400,-0.918,0.048,-0.204,-1.117,0.361
-0.400,-0.918,0.048,-0.480,-1.160,0.391
-0.401,-0.919,0.047,-0.669,-1.163,0.427
-0.401,-0.919,0.046,-0.711,-1.112,0.425
-0.401,-0.919,0.046,-0.677,-1.030,0.423
-0.401,-0.919,0.046,-0.601,-0.972,0.447
-0.402,-0.919,0.046,-0.512,-0.949,0.497
-0.403,-0.919,0.047,-0.465,-0.956,0.591
-0.404,-0.918,0.047,-0.446,-0.995,0.684
-0.404,-0.918,0.048,-0.475,-1.048,0.776
-0.404,-0.918,0.048,-0.556,-1.088,0.857
-0.405,-0.918,0.048,-0.672,-1.125,0.930
-0.405,-0.917,0.047,-0.798,-1.163,0.985
-0.405,-0.917,0.047,-0.921,-1.213,1.017
-0.405,-0.916,0.046,-1.038,-1.279,1.029
-0.405,-0.916,0.045,-1.130,-1.353,1.016
-0.405,-0.916,0.045,-1.178,-1.429,0.979

-0.384,-0.803,0.686,-3.261,-14.136,-0.669
-0.371,-0.812,0.698,-4.675,-21.873,-2.090
-0.357,-0.821,0.711,-5.678,-27.379,-3.322
-0.342,-0.829,0.721,-6.327,-30.469,-4.424
-0.326,-0.837,0.731,-6.570,-32.011,-5.424
-0.309,-0.846,0.742,-6.529,-32.154,-6.296
-0.290,-0.855,0.754,-6.292,-31.478,-7.066
-0.270,-0.859,0.767,-5.893,-30.343,-7.731
-0.251,-0.867,0.781,-5.433,-28.662,-8.335
-0.232,-0.873,0.796,-4.981,-25.780,-8.923
-0.213,-0.877,0.812,-4.597,-21.884,-9.512
-0.195,-0.880,0.828,-4.382,-16.937,-10.114
-0.178,-0.882,0.844,-4.296,-10.558,-10.793
-0.162,-0.883,0.858,-4.382,-3.111,-11.562
-0.147,-0.884,0.870,-4.618,5.076,-12.366
-0.132,-0.887,0.879,-4.879,13.984,-13.174
-0.117,-0.889,0.886,-5.088,23.992,-13.980
-0.103,-0.893,0.891,-5.236,34.539,-14.801
-0.089,-0.896,0.896,-5.396,45.588,-15.623
-0.076,-0.900,0.899,-5.630,57.150,-16.430
-0.063,-0.905,0.902,-5.888,69.038,-17.162
-0.050,-0.910,0.903,-6.164,81.406,-17.793
-0.038,-0.914,0.902,-6.374,94.793,-18.308
-0.027,-0.919,0.900,-6.477,108.297,-18.657
-0.017,-0.922,0.896,-6.401,122.185,-18.915
-0.008,-0.924,0.891,-6.244,135.840,-20.131
0.002,-0.921,0.884,-6.637,147.403,-20.935
0.008,-0.923,0.874,-6.801,161.901,-22.441
0.018,-0.921,0.865,-6.996,173.961,-23.338
0.018,-0.918,0.855,-8.047,185.512,-23.059
0.023,-0.923,0.841,-8.640,199.119,-23.056
0.033,-0.928,0.824,-8.869,213.798,-23.066
0.041,-0.929,0.806,-9.078,227.657,-22.743
0.044,-0.928,0.785,-9.498,239.644,-22.282
0.047,-0.926,0.761,-9.943,249.752,-21.804
0.051,-0.926,0.735,-10.014,258.443,-21.429
0.054,-0.929,0.708,-9.634,266.200,-21.168
0.058,-0.933,0.679,-8.548,272.912,-20.939
0.059,-0.936,0.648,-6.719,278.235,-20.698
0.060,-0.937,0.617,-4.129,282.163,-20.458
0.059,-0.937,0.589,-0.889,283.795,-20.167
0.055,-0.937,0.562,2.791,283.364,-19.828
0.051,-0.935,0.537,6.472,281.777,-19.456
0.048,-0.932,0.514,10.027,278.939,-19.174
0.046,-0.929,0.492,13.264,274.792,-18.967
0.041,-0.926,0.471,15.949,269.771,-18.825
0.035,-0.925,0.449,18.110,263.994,-18.728
0.030,-0.923,0.426,19.829,257.839,-18.775
0.024,-0.923,0.402,21.010,251.468,-18.923
0.018,-0.924,0.378,21.932,245.072,-19.205
0.012,-0.925,0.354,22.639,238.712,-19.550
0.005,-0.926,0.331,23.141,232.377,-19.904
-0.002,-0.927,0.308,23.523,226.215,-20.234
-0.009,-0.929,0.285,23.749,220.246,-20.484
-0.016,-0.931,0.262,23.873,214.475,-20.646
-0.024,-0.933,0.239,23.892,208.907,-20.730
-0.031,-0.935,0.218,23.900,203.547,-20.760
-0.040,-0.936,0.198,23.955,198.396,-20.763
-0.049,-0.937,0.180,24.056,193.444,-20.760
-0.058,-0.938,0.163,24.351,188.687,-20.748
-0.067,-0.937,0.146,24.804,184.109,-20.736
-0.076,-0.935,0.129,25.312,179.703,-21.045
-0.083,-0.932,0.112,25.569,175.434,-21.423
-0.093,-0.931,0.092,25.504,171.315,-20.922
-0.096,-0.933,0.076,27.111,167.464,-21.454
-0.105,-0.931,0.060,27.876,163.627,-21.350
-0.113,-0.931,0.044,28.326,159.943,-21.173
-0.118,-0.933,0.030,29.445,156.363,-21.484
-0.122,-0.934,0.017,30.771,152.909,-21.996
-0.127,-0.935,0.007,31.858,149.603,-22.552
-0.131,-0.935,-0.002,32.660,146.443,-23.020
-0.136,-0.935,-0.010,32.997,143.058,-23.074
-0.141,-0.936,-0.017,33.245,139.619,-23.023
-0.145,-0.935,-0.023,33.305,136.077,-22.860
-0.150,-0.933,-0.030,33.088,132.138,-22.560
-0.155,-0.932,-0.037,32.713,128.076,-22.187
-0.160,-0.931,-0.043,32.316,123.979,-21.752
-0.166,-0.930,-0.049,31.975,119.899,-21.220
-0.171,-0.930,-0.054,31.754,115.788,-20.528
-0.176,-0.931,-0.057,31.698,111.706,-19.641
-0.181,-0.932,-0.060,31.831,107.618,-18.445
-0.187,-0.932,-0.062,32.039,103.454,-17.008
-0.193,-0.932,-0.061,32.178,99.173,-15.405
-0.199,-0.931,-0.060,32.193,95.043,-13.947
-0.203,-0.928,-0.059,32.005,90.926,-12.749
-0.210,-0.925,-0.056,31.415,86.868,-11.929
-0.217,-0.921,-0.056,30.786,83.016,-11.060
-0.222,-0.920,-0.054,30.031,79.345,-10.270
-0.231,-0.919,-0.051,28.926,75.301,-9.470
-0.237,-0.916,-0.047,27.566,71.413,-8.781
-0.244,-0.916,-0.044,26.305,67.945,-8.177
-0.249,-0.916,-0.040,25.281,64.789,-7.649
-0.255,-0.915,-0.036,24.338,61.738,-7.156
-0.261,-0.914,-0.032,23.439,58.747,-6.659
-0.266,-0.913,-0.028,22.711,55.942,-6.219
-0.271,-0.913,-0.024,22.165,53.401,-5.811
-0.277,-0.912,-0.021,21.726,51.067,-5.431
-0.282,-0.910,-0.019,21.371,48.946,-5.158
-0.286,-0.909,-0.016,21.092,46.990,-5.045
-0.291,-0.907,-0.013,20.857,45.062,-5.106
-0.295,-0.905,-0.009,20.637,43.263,-5.209
-0.299,-0.904,-0.005,20.406,41.415,-5.370
-0.303,-0.903,-0.001,20.174,39.583,-5.569
-0.307,-0.903,0.004,19.905,37.804,-5.655
-0.311,-0.904,0.009,19.615,36.084,-5.548
-0.314,-0.906,0.013,19.359,34.409,-5.259
-0.318,-0.906,0.016,19.079,32.834,-4.929
-0.321,-0.906,0.019,18.757,31.340,-4.626
-0.324,-0.905,0.022,18.346,29.918,-4.387
-0.326,-0.905,0.025,17.837,28.584,-4.224
-0.328,-0.905,0.027,17.250,27.302,-4.135
-0.330,-0.905,0.030,16.617,26.072,-4.132
-0.332,-0.905,0.033,15.958,24.861,-4.174
-0.333,-0.905,0.036,15.255,23.668,-4.241
-0.335,-0.905,0.040,14.506,22.511,-4.313
-0.337,-0.906,0.042,13.752,21.413,-4.369
-0.339,-0.907,0.045,13.050,20.361,-4.401
-0.341,-0.908,0.047,12.379,19.353,-4.391
-0.343,-0.910,0.049,11.740,18.369,-4.335
-0.344,-0.911,0.051,11.147,17.420,-4.230
-0.346,-0.912,0.053,10.632,16.512,-4.078
-0.348,-0.914,0.055,10.182,15.646,-3.891
-0.349,-0.915,0.057,9.765,14.811,-3.672
-0.350,-0.916,0.059,9.357,13.998,-3.433
-0.352,-0.917,0.062,8.906,13.189,-3.188
-0.353,-0.918,0.065,8.382,12.414,-2.944
-0.354,-0.918,0.067,7.798,11.692,-2.719
-0.354,-0.919,0.069,7.146,11.023,-2.516
-0.355,-0.919,0.072,6.451,10.395,-2.318
-0.355,-0.920,0.074,5.718,9.801,-2.135
-0.356,-0.920,0.075,5.039,9.239,-1.958
-0.357,-0.920,0.077,4.451,8.722,-1.785
-0.358,-0.921,0.077,4.011,8.270,-1.616
-0.359,-0.921,0.078,3.733,7.849,-1.456
-0.360,-0.922,0.079,4.129,7.435,-1.307
-0.361,-0.921,0.080,4.133,7.009,-1.190
-0.363,-0.921,0.081,4.176,6.557,-1.085
-0.364,-0.921,0.083,4.247,6.089,-1.004
-0.365,-0.921,0.084,4.329,5.636,-0.943
-0.366,-0.920,0.086,4.365,5.192,-0.886
-0.367,-0.920,0.088,4.297,4.775,-0.838
-0.368,-0.919,0.090,4.151,4.394,-0.797
-0.369,-0.918,0.091,3.944,4.047,-0.760
-0.369,-0.918,0.092,3.704,3.776,-0.729
-0.370,-0.918,0.093,3.453,3.565,-0.706
-0.371,-0.918,0.094,3.208,3.408,-0.687
-0.372,-0.918,0.096,3.011,3.280,-0.680
-0.373,-0.917,0.097,2.864,3.174,-0.675
-0.374,-0.917,0.097,2.769,3.073,-0.683
-0.375,-0.917,0.097,2.721,2.972,-0.713
-0.377,-0.917,0.098,2.699,2.866,-0.759
-0.377,-0.917,0.098,2.686,2.745,-0.818
-0.378,-0.917,0.099,2.635,2.591,-0.878
-0.378,-0.917,0.100,2.469,2.405,-0.941
-0.379,-0.917,0.101,2.216,2.206,-1.001
-0.379,-0.917,0.102,1.894,2.004,-1.047
-0.379,-0.918,0.103,1.508,1.833,-1.087
-0.379,-0.918,0.103,1.080,1.688,-1.108
-0.379,-0.918,0.103,0.643,1.578,-1.123
-0.380,-0.918,0.103,0.259,1.488,-1.125
-0.380,-0.919,0.102,-0.018,1.434,-1.124
-0.380,-0.920,0.101,-0.151,1.398,-1.133
-0.381,-0.920,0.101,-0.141,1.377,-1.171
-0.382,-0.921,0.100,-0.037,1.371,-1.218
-0.383,-0.921,0.099,0.214,1.302,-1.235
-0.382,-0.920,0.099,0.615,1.353,-1.321
-0.384,-0.919,0.100,0.659,1.178,-1.166
-0.384,-0.920,0.100,0.726,1.094,-1.135
-0.384,-0.921,0.101,0.842,1.020,-1.244
-0.383,-0.920,0.102,0.832,0.939,-1.355
-0.384,-0.920,0.102,0.699,0.859,-1.438
-0.384,-0.920,0.103,0.559,0.781,-1.509
-0.385,-0.920,0.102,0.421,0.718,-1.547
-0.385,-0.920,0.102,0.305,0.664,-1.567
-0.385,-0.921,0.101,0.252,0.628,-1.592
-0.385,-0.921,0.101,0.276,0.607,-1.646
-0.386,-0.921,0.101,0.356,0.594,-1.712
-0.386,-0.922,0.101,0.453,0.565,-1.756
-0.386,-0.922,0.101,0.529,0.507,-1.774
-0.387,-0.922,0.102,0.558,0.431,-1.757
-0.387,-0.922,0.102,0.541,0.344,-1.704
-0.387,-0.922,0.102,0.487,0.264,-1.630
-0.388,-0.922,0.102,0.407,0.214,-1.549
-0.388,-0.922,0.102,0.319,0.177,-1.465
-0.388,-0.922,0.102,0.243,0.159,-1.388
-0.388,-0.922,0.103,0.172,0.145,-1.325
-0.389,-0.922,0.103,0.090,0.119,-1.286
-0.389,-0.922,0.102,0.005,0.092,-1.359
-0.388,-0.922,0.101,-0.095,0.096,-1.461
-0.388,-0.921,0.099,-0.147,0.273,-1.474
-0.388,-0.924,0.099,-0.137,0.143,-1.400
-0.390,-0.924,0.099,-0.370,-0.202,-1.361
-0.389,-0.923,0.098,-0.635,-0.331,-1.377
-0.388,-0.924,0.097,-0.757,-0.431,-1.426
-0.388,-0.925,0.097,-0.742,-0.468,-1.513
-0.388,-0.925,0.096,-0.707,-0.534,-1.553
-0.388,-0.926,0.096,-0.653,-0.587,-1.538
-0.389,-0.926,0.097,-0.542,-0.616,-1.516
-0.389,-0.927,0.096,-0.454,-0.709,-1.522

-0.274,-0.874,0.716,-2.008,-14.236,-2.629
-0.263,-0.880,0.728,-3.141,-24.586,-3.631
-0.251,-0.884,0.739,-3.963,-31.596,-4.556
-0.238,-0.888,0.748,-4.483,-35.298,-5.452
-0.224,-0.890,0.756,-4.775,-37.548,-6.274
-0.210,-0.893,0.766,-4.923,-38.842,-7.000
-0.196,-0.897,0.778,-5.093,-39.355,-7.698
-0.180,-0.902,0.794,-5.321,-38.983,-8.410
-0.162,-0.908,0.813,-5.653,-38.111,-9.157
-0.143,-0.915,0.834,-6.310,-36.879,-9.950
-0.123,-0.922,0.856,-7.231,-35.416,-10.733
-0.102,-0.928,0.877,-8.426,-32.885,-11.428
-0.082,-0.933,0.894,-9.624,-29.417,-11.956
-0.062,-0.934,0.904,-10.372,-24.546,-12.226
-0.042,-0.935,0.909,-10.925,-17.805,-12.263
-0.022,-0.937,0.912,-11.248,-8.548,-12.178
-0.002,-0.937,0.914,-11.307,2.414,-12.064
0.017,-0.938,0.915,-11.193,14.772,-11.961
0.035,-0.937,0.915,-10.980,28.167,-11.861
0.050,-0.937,0.915,-10.702,42.669,-11.782
0.064,-0.936,0.917,-10.503,57.641,-11.741
0.078,-0.936,0.918,-10.570,73.312,-11.705
0.091,-0.936,0.920,-10.907,89.813,-11.712
0.103,-0.939,0.921,-11.479,107.134,-11.720
0.114,-0.942,0.923,-12.123,124.895,-11.632
0.123,-0.945,0.921,-13.025,144.140,-12.102
0.132,-0.944,0.915,-14.388,164.338,-11.694
0.142,-0.950,0.906,-14.592,185.989,-12.530
0.147,-0.946,0.896,-15.017,206.635,-11.732
0.145,-0.948,0.882,-15.058,227.515,-10.910
0.149,-0.952,0.864,-14.447,251.057,-10.496
0.154,-0.952,0.845,-13.298,273.521,-10.063
0.156,-0.948,0.825,-11.993,293.505,-9.448
0.157,-0.942,0.805,-10.333,311.802,-9.087
0.158,-0.937,0.784,-8.578,328.056,-8.909
0.159,-0.933,0.764,-6.482,342.360,-8.995
0.159,-0.930,0.744,-3.905,354.248,-9.335
0.160,-0.928,0.723,-1.281,362.492,-9.939
0.160,-0.925,0.702,1.051,367.673,-10.812
0.162,-0.919,0.680,2.842,370.085,-11.835
0.163,-0.915,0.655,3.629,368.399,-12.667
0.160,-0.912,0.628,3.918,364.278,-13.315
0.160,-0.909,0.597,3.837,358.715,-13.902
0.164,-0.906,0.561,3.545,353.042,-14.679
0.162,-0.905,0.524,3.129,345.204,-15.526
0.160,-0.905,0.487,2.884,336.531,-16.616
0.157,-0.907,0.450,2.882,327.387,-17.746
0.152,-0.910,0.412,3.480,317.985,-19.035
0.147,-0.911,0.375,4.487,308.516,-20.430
0.141,-0.912,0.338,5.736,299.195,-21.941
0.135,-0.912,0.301,7.172,290.094,-23.474
0.128,-0.913,0.263,8.793,281.381,-24.956
0.121,-0.914,0.225,10.541,273.042,-26.364
0.114,-0.915,0.189,12.417,265.067,-27.534
0.107,-0.916,0.153,14.481,257.468,-28.435
0.099,-0.918,0.118,16.732,250.261,-28.959
0.093,-0.921,0.088,19.126,243.502,-29.106
0.085,-0.923,0.063,21.569,237.171,-28.954
0.077,-0.925,0.040,23.942,231.277,-28.662
0.067,-0.924,0.021,26.132,225.924,-28.296
0.058,-0.927,0.001,27.564,219.607,-26.254
0.052,-0.930,-0.013,31.621,214.457,-26.031
0.040,-0.925,-0.027,32.588,207.796,-24.694
0.032,-0.926,-0.040,32.981,201.282,-23.473
0.023,-0.929,-0.053,33.572,194.513,-22.496
0.015,-0.931,-0.065,34.383,187.757,-22.055
0.007,-0.929,-0.075,34.598,180.967,-21.924
-0.002,-0.927,-0.085,34.326,173.994,-21.919
-0.011,-0.925,-0.093,33.908,167.240,-22.059
-0.021,-0.924,-0.099,33.452,160.703,-22.134
-0.032,-0.924,-0.103,32.981,154.457,-21.917
-0.044,-0.926,-0.106,32.588,148.646,-21.170
-0.055,-0.928,-0.108,32.321,143.149,-20.123
-0.066,-0.928,-0.105,32.073,137.853,-18.965
-0.076,-0.926,-0.105,31.725,132.752,-17.850
-0.086,-0.925,-0.104,31.253,127.805,-16.878
-0.095,-0.923,-0.103,30.628,122.911,-16.063
-0.105,-0.920,-0.103,29.849,118.125,-15.336
-0.114,-0.918,-0.103,28.919,113.371,-14.659
-0.124,-0.917,-0.103,27.940,108.709,-14.002
-0.133,-0.916,-0.103,27.027,104.253,-13.360
-0.142,-0.916,-0.102,26.384,100.064,-12.693
-0.150,-0.916,-0.102,25.923,96.083,-11.968
-0.159,-0.917,-0.100,25.600,92.281,-11.152
-0.167,-0.917,-0.097,25.424,88.589,-10.262
-0.175,-0.917,-0.094,25.335,84.967,-9.372
-0.183,-0.917,-0.091,25.217,81.389,-8.619
-0.191,-0.916,-0.088,24.997,77.844,-8.063
-0.198,-0.915,-0.085,24.652,74.269,-7.756
-0.204,-0.913,-0.081,24.165,71.001,-7.909
-0.207,-0.912,-0.078,23.304,67.099,-8.155
-0.214,-0.911,-0.074,21.683,63.163,-8.764
-0.221,-0.912,-0.071,20.784,61.785,-8.656
-0.226,-0.919,-0.070,19.816,58.340,-8.442
-0.234,-0.920,-0.067,18.622,54.854,-8.133
-0.237,-0.920,-0.064,17.606,52.313,-7.975
-0.242,-0.921,-0.061,16.680,49.805,-7.678
-0.246,-0.924,-0.058,15.946,47.445,-7.331
-0.250,-0.926,-0.056,15.454,45.251,-7.030
-0.254,-0.926,-0.053,14.928,43.104,-6.681
-0.259,-0.927,-0.050,14.337,41.032,-6.373
-0.263,-0.927,-0.048,13.691,38.964,-6.200
-0.267,-0.926,-0.047,13.059,36.989,-6.130
-0.271,-0.927,-0.046,12.469,35.065,-6.199
-0.275,-0.927,-0.045,11.923,33.251,-6.323
-0.279,-0.928,-0.043,11.389,31.492,-6.540
-0.282,-0.928,-0.040,10.885,29.922,-6.725
-0.285,-0.929,-0.038,10.390,28.453,-6.772
-0.289,-0.930,-0.035,9.920,27.072,-6.622
-0.292,-0.932,-0.032,9.478,25.737,-6.246
-0.295,-0.933,-0.029,9.037,24.469,-5.781
-0.298,-0.933,-0.027,8.588,23.269,-5.323
-0.300,-0.933,-0.025,8.137,22.104,-4.931
-0.303,-0.933,-0.022,7.664,20.981,-4.630
-0.305,-0.932,-0.020,7.207,19.909,-4.447
-0.307,-0.932,-0.017,6.821,18.897,-4.334
-0.309,-0.932,-0.015,6.532,17.927,-4.279
-0.311,-0.932,-0.013,6.301,16.990,-4.243
-0.313,-0.932,-0.011,6.121,16.156,-4.213
-0.315,-0.933,-0.009,6.057,15.434,-4.170
-0.317,-0.933,-0.007,6.071,14.808,-4.109
-0.319,-0.933,-0.005,6.119,14.261,-4.024
-0.321,-0.932,-0.002,6.164,13.739,-3.934
-0.322,-0.931,0.000,6.166,13.231,-3.838
-0.324,-0.931,0.002,6.111,12.723,-3.747
-0.326,-0.930,0.004,6.025,12.215,-3.668
-0.327,-0.929,0.006,5.907,11.691,-3.596
-0.328,-0.928,0.008,5.737,11.114,-3.539
-0.329,-0.928,0.010,5.481,10.490,-3.497
-0.330,-0.927,0.011,5.123,9.868,-3.468
-0.331,-0.928,0.012,4.730,9.301,-3.469
-0.332,-0.928,0.012,4.382,8.789,-3.482
-0.333,-0.928,0.013,4.074,8.330,-3.502
-0.333,-0.928,0.015,3.743,7.918,-3.517
-0.334,-0.928,0.016,3.424,7.540,-3.522
-0.336,-0.928,0.018,3.148,7.182,-3.508
-0.337,-0.928,0.018,2.949,6.847,-3.460
-0.338,-0.929,0.018,2.857,6.558,-3.389
-0.338,-0.929,0.018,2.863,6.288,-3.312
-0.339,-0.930,0.019,2.934,6.014,-3.238
-0.340,-0.930,0.020,3.021,5.726,-3.173
-0.341,-0.930,0.021,3.099,5.419,-3.135
-0.341,-0.930,0.022,3.133,5.080,-3.108
-0.342,-0.930,0.023,3.108,4.729,-3.082
-0.342,-0.929,0.022,3.054,4.385,-3.064
-0.343,-0.929,0.022,2.998,4.051,-3.066
-0.343,-0.930,0.022,2.936,3.740,-3.072
-0.344,-0.930,0.023,2.850,3.451,-3.072
-0.345,-0.931,0.024,2.746,3.183,-3.058
-0.347,-0.931,0.025,2.642,2.939,-3.027
-0.348,-0.931,0.026,2.550,2.721,-2.982
-0.349,-0.931,0.027,2.462,2.528,-2.927
-0.350,-0.931,0.028,2.389,2.359,-2.876
-0.351,-0.932,0.029,2.295,2.204,-2.835
-0.351,-0.932,0.029,2.192,2.057,-2.814
-0.352,-0.933,0.030,2.107,1.915,-2.803
-0.353,-0.934,0.030,2.024,1.758,-2.797
-0.353,-0.934,0.031,1.898,1.586,-2.794
-0.353,-0.935,0.032,1.670,1.407,-2.775
-0.353,-0.936,0.032,1.351,1.247,-2.737
-0.353,-0.937,0.033,1.006,1.111,-2.676
-0.352,-0.938,0.034,0.653,1.008,-2.582
-0.353,-0.939,0.035,0.298,0.934,-2.468
-0.353,-0.939,0.035,-0.017,0.894,-2.347
-0.354,-0.940,0.036,-0.271,0.873,-2.314
-0.355,-0.941,0.036,-0.443,0.903,-1.946
-0.357,-0.944,0.037,-0.290,1.210,-2.074
-0.358,-0.942,0.037,-0.241,1.050,-1.925
-0.360,-0.942,0.037,-0.580,0.911,-1.513
-0.361,-0.944,0.037,-0.546,0.869,-1.363
-0.360,-0.944,0.037,-0.426,0.847,-1.415
-0.360,-0.943,0.037,-0.399,0.815,-1.463
-0.360,-0.943,0.037,-0.451,0.792,-1.454
-0.361,-0.943,0.036,-0.523,0.774,-1.404
-0.361,-0.943,0.036,-0.632,0.776,-1.296
-0.361,-0.942,0.036,-0.761,0.793,-1.162
-0.362,-0.942,0.035,-0.852,0.837,-1.071
-0.362,-0.942,0.035,-0.883,0.898,-1.044
-0.362,-0.942,0.034,-0.892,0.946,-1.053
-0.363,-0.941,0.033,-0.945,0.957,-1.064
-0.364,-0.941,0.033,-1.017,0.943,-1.066
-0.364,-0.941,0.032,-1.084,0.911,-1.056
-0.365,-0.941,0.032,-1.144,0.862,-1.028
-0.365,-0.941,0.032,-1.225,0.808,-0.979
-0.365,-0.941,0.032,-1.328,0.761,-0.911
-0.365,-0.941,0.032,-1.447,0.723,-0.812
-0.365,-0.941,0.031,-1.580,0.700,-0.688
-0.365,-0.941,0.031,-1.726,0.688,-0.557
-0.365,-0.940,0.030,-1.857,0.679,-0.453
-0.365,-0.940,0.029,-1.976,0.653,-0.379
-0.365,-0.939,0.028,-2.060,0.604,-0.348
-0.365,-0.939,0.027,-2.082,0.534,-0.355
-0.366,-0.939,0.026,-2.085,0.445,-0.375
-0.366,-0.939,0.026,-2.113,0.328,-0.388
-0.366,-0.939,0.027,-2.189,0.187,-0.385
-0.366,-0.938,0.027,-2.336,0.037,-0.472
-0.365,-0.938,0.027,-2.718,-0.448,-0.542
-0.364,-0.942,0.029,-2.801,-0.158,-0.376
-0.366,-0.942,0.028,-3.356,-0.709,-0.118

0.031,-1.078,0.785,-2.944,-1.318,-1.895
0.048,-1.083,0.800,-2.527,-0.985,-3.413
0.065,-1.089,0.815,-2.104,-0.007,-4.557
0.083,-1.093,0.833,-1.726,2.106,-5.509
0.102,-1.096,0.852,-1.432,7.299,-6.356
0.120,-1.097,0.871,-1.294,13.568,-7.133
0.136,-1.097,0.889,-1.328,21.750,-7.848
0.151,-1.099,0.905,-1.597,31.804,-8.503
0.164,-1.103,0.917,-1.891,43.501,-9.085
0.176,-1.109,0.925,-1.961,56.874,-9.659
0.187,-1.117,0.928,-1.739,72.318,-10.212
0.197,-1.125,0.928,-1.080,88.619,-10.710
0.206,-1.133,0.926,0.097,105.804,-11.189
0.214,-1.141,0.922,2.115,124.012,-11.628
0.221,-1.148,0.917,4.725,143.137,-11.973
0.228,-1.153,0.911,7.773,162.700,-12.201
0.235,-1.156,0.904,11.201,182.987,-12.405
0.240,-1.157,0.896,14.880,202.559,-12.676
0.243,-1.155,0.889,18.513,221.536,-13.044
0.246,-1.152,0.883,21.800,239.350,-13.577
0.247,-1.147,0.878,24.463,255.795,-14.513
0.248,-1.139,0.871,26.043,270.396,-16.616
0.253,-1.130,0.862,26.905,283.888,-18.240
0.258,-1.125,0.849,27.580,296.228,-20.280
0.255,-1.116,0.835,27.124,305.333,-20.924
0.255,-1.109,0.818,26.216,314.198,-21.925
0.261,-1.104,0.797,24.966,322.207,-22.913
0.265,-1.100,0.774,23.333,329.268,-23.508
0.268,-1.097,0.749,21.021,334.257,-23.725
0.272,-1.092,0.723,18.062,337.883,-23.830
0.276,-1.086,0.693,14.507,339.923,-24.007
0.280,-1.081,0.660,10.732,340.631,-24.332
0.285,-1.077,0.624,7.302,340.018,-24.799
0.289,-1.073,0.584,4.293,337.746,-25.120
0.290,-1.070,0.542,1.894,334.505,-25.352
0.290,-1.067,0.499,0.296,329.934,-25.430
0.288,-1.065,0.457,-0.387,324.221,-25.458
0.283,-1.062,0.416,-0.398,317.428,-25.395
0.281,-1.059,0.378,0.174,310.037,-25.313
0.278,-1.056,0.342,1.521,302.224,-25.198
0.273,-1.053,0.308,3.552,294.070,-25.032
0.268,-1.048,0.275,5.781,285.784,-24.840
0.262,-1.043,0.244,7.913,277.609,-24.607
0.256,-1.038,0.213,9.905,269.678,-24.302
0.249,-1.033,0.182,11.640,262.166,-23.925
0.241,-1.029,0.152,13.138,255.131,-23.457
0.232,-1.025,0.124,14.223,248.633,-22.773
0.223,-1.022,0.098,15.002,242.738,-21.981
0.214,-1.019,0.075,15.528,237.422,-21.702
0.206,-1.011,0.054,15.373,230.110,-21.340
0.193,-1.004,0.033,14.137,218.350,-17.504
0.188,-1.015,0.021,14.793,213.259,-16.069
0.175,-1.012,0.001,14.925,206.219,-12.641
0.158,-1.004,-0.015,14.588,198.019,-9.318
0.148,-1.000,-0.029,14.445,191.413,-6.650
0.137,-0.997,-0.042,14.717,185.259,-5.102
0.124,-0.990,-0.054,15.082,179.107,-4.432
0.110,-0.981,-0.065,15.281,172.598,-4.211
0.096,-0.978,-0.074,15.315,166.124,-4.161
0.083,-0.974,-0.081,15.436,159.962,-4.200
0.070,-0.971,-0.088,15.647,154.104,-4.287
0.057,-0.966,-0.093,15.741,148.340,-4.336
0.043,-0.962,-0.096,15.623,142.406,-4.377
0.030,-0.958,-0.098,15.296,136.527,-4.469
0.019,-0.955,-0.101,14.620,130.813,-4.640
0.007,-0.951,-0.102,13.688,125.355,-4.806
-0.003,-0.948,-0.104,12.652,120.215,-4.910
-0.015,-0.946,-0.106,11.705,115.461,-4.893
-0.026,-0.944,-0.109,11.055,111.122,-4.759
-0.037,-0.943,-0.112,10.793,106.902,-4.453
-0.049,-0.942,-0.114,10.707,102.454,-3.958
-0.060,-0.941,-0.115,10.829,97.853,-3.244
-0.070,-0.942,-0.115,11.333,93.490,-2.280
-0.078,-0.944,-0.114,12.451,89.578,-0.945
-0.087,-0.945,-0.112,13.858,85.933,0.571
-0.095,-0.944,-0.109,15.245,82.385,2.031
-0.104,-0.941,-0.106,16.295,78.733,3.234
-0.112,-0.939,-0.104,16.901,75.087,4.114
-0.120,-0.936,-0.103,17.176,71.468,4.612
-0.127,-0.933,-0.103,17.122,67.910,4.719
-0.135,-0.931,-0.102,16.916,64.510,4.601
-0.143,-0.928,-0.101,16.552,61.485,4.508
-0.151,-0.926,-0.097,16.121,58.648,3.974
-0.158,-0.922,-0.100,14.813,53.095,3.442
-0.164,-0.925,-0.089,14.294,51.675,3.359
-0.172,-0.929,-0.090,13.449,47.057,3.588
-0.182,-0.929,-0.086,12.369,43.131,3.691
-0.186,-0.928,-0.083,11.315,40.089,3.644
-0.193,-0.929,-0.081,10.309,37.470,3.790
-0.199,-0.931,-0.079,9.511,34.845,3.859
-0.206,-0.931,-0.077,8.894,32.454,3.937
-0.211,-0.931,-0.076,8.415,30.274,3.902
-0.217,-0.931,-0.075,7.991,28.074,3.783
-0.223,-0.930,-0.073,7.639,25.962,3.602
-0.228,-0.931,-0.071,7.403,24.044,3.312
-0.233,-0.931,-0.069,7.248,22.139,2.924
-0.237,-0.932,-0.066,7.120,20.436,2.532
-0.241,-0.932,-0.064,7.008,18.899,2.198
-0.245,-0.933,-0.060,6.833,17.507,1.962
-0.248,-0.933,-0.057,6.650,16.289,1.835
-0.252,-0.934,-0.055,6.976,15.213,1.875
-0.257,-0.935,-0.052,6.812,14.187,1.999
-0.261,-0.934,-0.050,6.676,13.235,2.131
-0.265,-0.934,-0.049,6.548,12.308,2.183
-0.269,-0.932,-0.048,6.430,11.396,2.112
-0.273,-0.931,-0.047,6.347,10.543,1.936
-0.276,-0.931,-0.045,6.362,9.762,1.608
-0.279,-0.931,-0.043,6.458,9.045,1.233
-0.282,-0.931,-0.040,6.591,8.423,0.874
-0.284,-0.932,-0.038,6.741,7.898,0.590
-0.286,-0.933,-0.034,6.850,7.425,0.404
-0.289,-0.933,-0.031,6.856,6.965,0.305
-0.291,-0.934,-0.028,6.717,6.519,0.262
-0.293,-0.934,-0.025,6.500,6.096,0.236
-0.295,-0.934,-0.023,6.238,5.687,0.215
-0.297,-0.934,-0.022,5.948,5.255,0.202
-0.299,-0.934,-0.020,5.612,4.794,0.189
-0.301,-0.934,-0.019,5.245,4.297,0.162
-0.302,-0.934,-0.018,4.903,3.783,0.102
-0.304,-0.935,-0.016,4.613,3.274,0.018
-0.305,-0.935,-0.015,4.379,2.762,-0.071
-0.306,-0.936,-0.013,4.153,2.242,-0.150
-0.307,-0.937,-0.012,3.916,1.725,-0.212
-0.308,-0.938,-0.010,3.653,1.223,-0.236
-0.309,-0.939,-0.009,3.365,0.741,-0.217
-0.309,-0.939,-0.007,3.041,0.308,-0.149
-0.310,-0.940,-0.005,2.715,-0.099,-0.057
-0.311,-0.940,-0.004,2.409,-0.468,0.069
-0.312,-0.941,-0.003,2.189,-0.803,0.208
-0.313,-0.942,-0.002,2.065,-1.101,0.339
-0.314,-0.943,-0.002,2.023,-1.356,0.446
-0.315,-0.943,-0.000,2.043,-1.576,0.513
-0.316,-0.944,0.001,2.087,-1.793,0.547
-0.317,-0.944,0.003,2.140,-2.024,0.560
-0.318,-0.944,0.005,2.174,-2.257,0.574
-0.319,-0.944,0.006,2.198,-2.481,0.589
-0.321,-0.945,0.008,2.233,-2.679,0.609
-0.322,-0.945,0.009,2.268,-2.851,0.634
-0.323,-0.945,0.010,2.301,-2.999,0.676
-0.325,-0.945,0.011,2.330,-3.144,0.747
-0.326,-0.945,0.012,2.337,-3.297,0.853
-0.326,-0.946,0.013,2.334,-3.419,0.986
-0.327,-0.946,0.014,2.330,-3.513,1.135
-0.328,-0.947,0.014,2.342,-3.584,1.285
-0.329,-0.947,0.015,2.380,-3.639,1.423
-0.330,-0.947,0.017,2.457,-3.697,1.538
-0.331,-0.947,0.018,2.563,-3.755,1.632
-0.332,-0.946,0.020,2.698,-3.820,1.708
-0.333,-0.945,0.021,2.840,-3.911,1.758
-0.334,-0.945,0.022,2.981,-4.021,1.802
-0.335,-0.944,0.023,3.114,-4.146,1.834
-0.335,-0.944,0.024,3.193,-4.287,1.884
-0.336,-0.944,0.025,3.193,-4.438,1.941
-0.336,-0.944,0.026,3.136,-4.571,1.993
-0.337,-0.944,0.027,3.018,-4.697,1.992
-0.337,-0.943,0.028,2.793,-4.814,1.961
-0.339,-0.942,0.027,2.423,-5.148,2.092
-0.337,-0.941,0.029,2.540,-4.874,2.058
-0.340,-0.939,0.029,2.239,-5.172,2.374
-0.342,-0.939,0.029,2.012,-5.327,2.587
-0.341,-0.940,0.029,2.051,-5.356,2.457
-0.342,-0.939,0.030,2.171,-5.421,2.232
-0.343,-0.939,0.030,2.324,-5.494,2.060
-0.344,-0.939,0.031,2.517,-5.587,1.951
-0.345,-0.939,0.032,2.735,-5.651,1.908
-0.346,-0.939,0.032,2.898,-5.749,1.919
-0.346,-0.939,0.033,2.978,-5.818,1.928
-0.346,-0.938,0.035,2.959,-5.839,1.917
-0.346,-0.937,0.036,2.815,-5.796,1.894
-0.346,-0.937,0.037,2.619,-5.732,1.890
-0.347,-0.936,0.037,2.405,-5.660,1.937
-0.352,-0.936,0.037,2.213,-5.613,2.029
-0.353,-0.935,0.038,2.063,-5.600,2.151
-0.354,-0.935,0.038,1.992,-5.597,2.270
-0.355,-0.935,0.038,2.035,-5.602,2.353
-0.356,-0.935,0.038,2.141,-5.615,2.411
-0.357,-0.935,0.039,2.275,-5.649,2.455
-0.358,-0.935,0.040,2.397,-5.714,2.486
-0.359,-0.934,0.041,2.437,-5.792,2.510
-0.359,-0.933,0.042,2.361,-5.873,2.495
-0.359,-0.932,0.043,2.108,-5.956,2.452
-0.359,-0.931,0.043,1.764,-6.030,2.381
-0.359,-0.931,0.043,1.371,-6.099,2.303
-0.359,-0.930,0.043,0.942,-6.165,2.233
-0.359,-0.930,0.042,0.538,-6.242,2.173
-0.360,-0.930,0.041,0.202,-6.338,2.133
-0.361,-0.931,0.040,-0.023,-6.444,2.115
-0.361,-0.931,0.040,-0.170,-6.565,2.117
-0.362,-0.931,0.039,-0.253,-6.720,2.138
-0.362,-0.931,0.039,-0.335,-6.878,2.150
-0.362,-0.931,0.039,-0.515,-7.343,2.104
-0.362,-0.931,0.039,-0.590,-7.225,2.458
-0.362,-0.932,0.037,-0.797,-7.722,2.688
-0.362,-0.931,0.035,-1.126,-8.189,2.817
-0.361,-0.930,0.034,-1.406,-8.368,2.923
-0.360,-0.931,0.032,-1.557,-8.612,2.995
-0.360,-0.931,0.031,-1.657,-8.881,3.043
-0.360,-0.931,0.030,-1.778,-9.269,3.132
-0.360,-0.932,0.028,-1.842,-9.635,3.210

-0.424,-1.004,0.439,-3.893,-27.368,3.533
-0.413,-1.013,0.454,-5.105,-40.272,3.976
-0.400,-1.022,0.467,-5.736,-50.281,4.747
-0.387,-1.033,0.480,-5.867,-56.877,5.783
-0.370,-1.044,0.494,-5.653,-60.744,7.053
-0.352,-1.053,0.511,-5.147,-62.639,8.687
-0.334,-1.058,0.530,-4.622,-63.101,10.445
-0.317,-1.060,0.552,-4.255,-62.535,12.228
-0.300,-1.059,0.579,-4.055,-61.074,13.755
-0.282,-1.057,0.607,-4.081,-59.042,14.965
-0.264,-1.052,0.637,-4.528,-56.760,15.679
-0.247,-1.047,0.666,-5.272,-53.914,15.993
-0.230,-1.042,0.693,-6.309,-49.603,16.034
-0.214,-1.039,0.716,-7.572,-44.396,15.891
-0.199,-1.036,0.735,-8.997,-38.260,15.554
-0.184,-1.035,0.751,-10.482,-31.462,15.122
-0.170,-1.034,0.762,-11.895,-23.520,14.590
-0.156,-1.034,0.770,-13.110,-14.466,13.995
-0.143,-1.036,0.776,-13.872,-4.499,13.165
-0.130,-1.038,0.780,-14.066,5.907,12.352
-0.118,-1.040,0.785,-13.920,16.782,11.537
-0.107,-1.043,0.790,-13.505,28.332,10.643
-0.097,-1.044,0.796,-12.772,40.742,9.701
-0.087,-1.045,0.801,-11.646,53.742,8.597
-0.076,-1.046,0.807,-10.285,67.101,7.390
-0.066,-1.044,0.811,-8.849,80.703,6.223
-0.056,-1.041,0.813,-7.518,94.480,5.079
-0.046,-1.038,0.810,-6.399,108.451,4.034
-0.037,-1.034,0.804,-5.581,121.945,3.033
-0.030,-1.029,0.796,-4.947,135.019,1.993
-0.022,-1.025,0.788,-4.419,147.715,0.870
-0.016,-1.020,0.779,-4.073,159.763,-0.274
-0.011,-1.016,0.771,-3.931,171.234,-1.415
-0.007,-1.011,0.763,-4.015,182.248,-2.624
-0.002,-1.008,0.754,-4.261,192.591,-3.705
0.002,-1.006,0.743,-5.413,202.521,-4.447
0.006,-1.006,0.728,-5.972,212.278,-4.862
0.011,-1.007,0.711,-6.546,221.610,-5.051
0.017,-1.007,0.686,-7.054,230.144,-5.051
0.022,-1.007,0.659,-7.365,237.984,-4.938
0.028,-1.007,0.628,-7.381,244.672,-4.752
0.033,-1.005,0.596,-7.135,250.409,-4.613
0.036,-1.004,0.562,-6.469,255.270,-4.465
0.037,-1.003,0.528,-5.301,259.054,-4.318
0.036,-1.001,0.495,-3.705,261.176,-4.122
0.032,-0.998,0.463,-1.981,261.725,-3.892
0.030,-0.992,0.434,-0.400,261.018,-3.668
0.027,-0.987,0.405,1.085,259.310,-3.621
0.027,-0.981,0.376,2.403,256.796,-3.627
0.024,-0.976,0.347,3.500,253.647,-3.649
0.021,-0.970,0.317,4.572,248.638,-3.783
0.017,-0.965,0.285,5.706,243.794,-4.066
0.012,-0.960,0.252,7.088,238.573,-4.515
0.008,-0.956,0.219,8.717,233.142,-5.133
0.003,-0.954,0.186,10.718,227.657,-5.919
-0.002,-0.953,0.154,13.025,222.212,-6.795
-0.007,-0.953,0.124,15.482,216.847,-7.670
-0.013,-0.953,0.097,17.953,211.624,-8.448
-0.018,-0.953,0.072,20.358,206.618,-9.099
-0.023,-0.953,0.048,22.464,201.885,-9.624
-0.029,-0.951,0.026,23.909,197.459,-10.510
-0.034,-0.947,0.008,24.421,193.294,-11.130
-0.041,-0.943,-0.008,24.208,184.539,-10.213
-0.049,-0.954,-0.021,25.218,180.529,-10.086
-0.050,-0.953,-0.041,26.365,176.840,-9.481
-0.064,-0.948,-0.059,26.355,169.881,-8.430
-0.073,-0.946,-0.074,26.327,163.940,-7.512
-0.076,-0.946,-0.088,26.817,159.303,-7.283
-0.081,-0.942,-0.101,27.392,154.731,-7.566
-0.087,-0.936,-0.112,27.591,149.644,-8.107
-0.094,-0.933,-0.121,27.625,144.642,-8.659
-0.100,-0.932,-0.130,27.814,139.984,-9.208
-0.107,-0.929,-0.136,27.979,135.235,-9.643
-0.115,-0.927,-0.141,27.926,130.282,-9.826
-0.124,-0.925,-0.145,27.613,125.027,-9.802
-0.133,-0.924,-0.148,27.205,119.847,-9.767
-0.140,-0.922,-0.150,26.715,114.991,-9.748
-0.147,-0.920,-0.151,26.158,110.488,-9.731
-0.155,-0.919,-0.152,25.570,106.320,-9.637
-0.163,-0.919,-0.152,25.021,102.476,-9.340
-0.171,-0.920,-0.153,24.535,98.863,-8.867
-0.180,-0.919,-0.154,24.072,95.102,-8.209
-0.188,-0.919,-0.155,23.649,90.927,-7.408
-0.196,-0.919,-0.155,23.328,86.916,-6.468
-0.203,-0.920,-0.154,23.241,83.282,-5.322
-0.210,-0.920,-0.154,23.316,79.948,-4.067
-0.217,-0.919,-0.152,23.499,76.725,-2.828
-0.224,-0.918,-0.150,23.670,73.489,-1.743
-0.231,-0.916,-0.148,23.696,70.265,-0.972
-0.237,-0.914,-0.145,23.583,67.008,-0.515
-0.244,-0.912,-0.142,23.336,63.853,-0.331
-0.249,-0.910,-0.140,23.023,60.889,-0.364
-0.254,-0.909,-0.137,22.688,58.079,-0.538
-0.259,-0.909,-0.134,22.302,55.371,-0.811
-0.265,-0.909,-0.131,21.867,52.763,-1.073
-0.270,-0.909,-0.127,21.364,50.286,-1.214
-0.277,-0.911,-0.124,20.842,48.041,-1.598
-0.280,-0.910,-0.125,19.444,42.756,-2.405
-0.284,-0.913,-0.114,18.281,41.689,-2.467
-0.287,-0.916,-0.114,17.071,38.931,-2.490
-0.297,-0.914,-0.108,15.639,35.647,-2.504
-0.299,-0.912,-0.106,14.333,33.307,-2.663
-0.302,-0.914,-0.105,13.302,31.026,-2.830
-0.306,-0.916,-0.102,12.682,28.978,-2.917
-0.310,-0.918,-0.100,12.387,27.222,-2.935
-0.313,-0.920,-0.098,12.274,25.745,-2.914
-0.316,-0.922,-0.095,12.279,24.425,-2.859
-0.319,-0.923,-0.092,12.337,23.168,-2.841
-0.321,-0.923,-0.088,12.344,22.025,-2.860
-0.323,-0.923,-0.085,12.264,20.933,-3.005
-0.325,-0.922,-0.082,12.085,19.982,-3.208
-0.327,-0.922,-0.080,11.833,19.111,-3.403
-0.329,-0.922,-0.077,11.534,18.320,-3.554
-0.331,-0.923,-0.074,11.205,17.559,-3.675
-0.332,-0.924,-0.071,10.882,16.800,-3.788
-0.334,-0.924,-0.068,10.571,16.023,-3.915
-0.335,-0.925,-0.065,10.252,15.229,-4.055
-0.336,-0.925,-0.063,9.948,14.438,-4.225
-0.337,-0.925,-0.061,9.708,13.659,-4.403
-0.338,-0.926,-0.059,9.562,12.908,-4.556
-0.339,-0.927,-0.056,9.519,12.243,-4.664
-0.340,-0.928,-0.053,9.616,11.671,-4.722
-0.340,-0.929,-0.050,9.800,11.173,-4.745
-0.341,-0.930,-0.048,9.968,10.699,-4.726
-0.341,-0.930,-0.045,10.035,10.208,-4.672
-0.342,-0.930,-0.042,9.976,9.731,-4.594
-0.343,-0.930,-0.040,9.760,9.271,-4.502
-0.343,-0.930,-0.038,9.454,8.837,-4.410
-0.343,-0.930,-0.036,9.044,8.411,-4.317
-0.344,-0.930,-0.034,8.535,7.967,-4.239
-0.344,-0.930,-0.033,7.955,7.505,-4.181
-0.344,-0.930,-0.032,7.411,7.037,-4.160
-0.344,-0.930,-0.031,6.940,6.555,-4.159
-0.344,-0.932,-0.031,6.578,6.077,-4.171
-0.345,-0.933,-0.030,6.316,5.614,-4.188
-0.345,-0.934,-0.030,6.170,5.158,-4.205
-0.345,-0.935,-0.028,6.085,4.680,-4.201
-0.346,-0.936,-0.025,5.988,4.177,-4.178
-0.345,-0.936,-0.022,5.817,3.691,-4.122
-0.345,-0.937,-0.020,5.554,3.199,-4.027
-0.345,-0.938,-0.018,5.161,2.737,-3.896
-0.345,-0.938,-0.016,4.617,2.307,-3.730
-0.344,-0.939,-0.014,4.036,1.938,-3.550
-0.344,-0.940,-0.013,3.489,1.653,-3.365
-0.344,-0.941,-0.013,3.033,1.440,-3.199
-0.344,-0.942,-0.013,2.737,1.284,-3.070
-0.344,-0.943,-0.012,2.672,1.183,-2.981
-0.345,-0.944,-0.012,2.747,1.108,-2.890
-0.346,-0.945,-0.011,2.928,1.024,-2.795
-0.347,-0.945,-0.009,3.162,0.921,-2.697
-0.347,-0.946,-0.008,3.410,0.806,-2.590
-0.348,-0.946,-0.006,3.633,0.672,-2.458
-0.348,-0.946,-0.004,3.802,0.507,-2.301
-0.348,-0.947,-0.002,3.850,0.338,-2.108
-0.348,-0.947,-0.000,3.780,0.167,-1.896
-0.348,-0.946,0.001,3.610,0.011,-1.689
-0.348,-0.946,0.003,3.391,-0.129,-1.512
-0.348,-0.946,0.003,3.179,-0.258,-1.365
-0.349,-0.946,0.004,2.994,-0.363,-1.260
-0.350,-0.946,0.004,2.872,-0.440,-1.198
-0.351,-0.946,0.004,2.827,-0.512,-1.170
-0.351,-0.945,0.005,2.873,-0.579,-1.167
-0.351,-0.945,0.005,2.957,-0.651,-1.165
-0.351,-0.945,0.006,3.047,-0.741,-1.155
-0.351,-0.944,0.007,3.098,-0.857,-1.130
-0.351,-0.943,0.007,3.100,-0.986,-1.088
-0.351,-0.942,0.007,3.048,-1.122,-1.035
-0.350,-0.942,0.007,2.979,-1.262,-0.978
-0.350,-0.941,0.008,2.888,-1.413,-0.929
-0.351,-0.940,0.008,2.805,-1.572,-0.888
-0.351,-0.939,0.007,2.748,-1.760,-0.855
-0.351,-0.938,0.007,2.718,-1.953,-0.841
-0.351,-0.938,0.006,2.713,-2.138,-0.854
-0.351,-0.938,0.006,2.721,-2.293,-0.885
-0.351,-0.938,0.007,2.723,-2.419,-0.925
-0.351,-0.938,0.008,2.710,-2.515,-0.968
-0.351,-0.938,0.009,2.667,-2.596,-1.010
-0.351,-0.937,0.009,2.602,-2.662,-1.047
-0.352,-0.936,0.010,2.529,-2.711,-1.085
-0.352,-0.936,0.010,2.449,-2.775,-1.121
-0.353,-0.936,0.010,2.366,-2.863,-1.153
-0.353,-0.936,0.010,2.300,-2.963,-1.180
-0.353,-0.936,0.009,2.287,-3.085,-1.205
-0.353,-0.937,0.009,2.333,-3.207,-1.234
-0.354,-0.937,0.009,2.415,-3.343,-1.258
-0.354,-0.937,0.010,2.515,-3.483,-1.278
-0.355,-0.937,0.011,2.571,-3.647,-1.294
-0.355,-0.937,0.012,2.584,-3.825,-1.311
-0.355,-0.937,0.012,2.560,-3.990,-1.330
-0.355,-0.937,0.013,2.514,-4.135,-1.354
-0.355,-0.937,0.013,2.413,-4.249,-1.370
-0.355,-0.937,0.014,2.283,-4.348,-1.385
-0.355,-0.938,0.014,2.143,-4.436,-1.412
-0.355,-0.938,0.015,1.996,-4.544,-1.445
-0.356,-0.938,0.016,1.836,-4.668,-1.476
-0.356,-0.939,0.016,1.655,-4.800,-1.501
-0.356,-0.939,0.017,1.471,-4.944,-1.520
-0.356,-0.940,0.017,1.286,-5.090,-1.528
-0.356,-0.941,0.018,1.108,-5.231,-1.523

-0.255,-0.946,0.653,-0.208,-18.101,-2.484
-0.251,-0.947,0.659,-1.288,-29.459,-3.651
-0.244,-0.952,0.667,-2.071,-39.574,-5.039
-0.235,-0.958,0.677,-2.509,-48.113,-6.697
-0.223,-0.967,0.689,-2.799,-55.140,-8.476
-0.209,-0.976,0.705,-2.888,-60.262,-10.192
-0.192,-0.988,0.725,-2.896,-63.469,-11.757
-0.171,-1.001,0.748,-2.872,-64.177,-13.085
-0.149,-1.012,0.773,-2.827,-63.350,-14.201
-0.128,-1.022,0.799,-2.809,-61.365,-15.050
-0.108,-1.030,0.823,-2.829,-59.066,-15.594
-0.090,-1.032,0.841,-2.716,-56.741,-15.771
-0.074,-1.031,0.850,-2.218,-53.681,-15.673
-0.058,-1.029,0.850,-1.123,-49.118,-15.329
-0.040,-1.029,0.847,0.322,-43.279,-14.744
-0.021,-1.030,0.841,1.984,-36.511,-13.981
-0.001,-1.031,0.834,3.420,-28.313,-13.278
0.020,-1.032,0.828,4.671,-19.256,-12.757
0.041,-1.033,0.825,5.589,-8.972,-12.396
0.061,-1.034,0.824,6.226,2.166,-12.152
0.080,-1.034,0.827,6.508,14.308,-11.953
0.097,-1.034,0.831,6.216,27.407,-11.742
0.113,-1.032,0.837,5.420,41.343,-11.468
0.127,-1.031,0.841,4.296,56.181,-11.037
0.139,-1.029,0.839,3.078,71.993,-10.310
0.150,-1.028,0.837,1.955,89.755,-9.188
0.158,-1.025,0.831,0.964,108.249,-7.705
0.165,-1.023,0.824,0.325,127.350,-6.086
0.170,-1.021,0.813,0.179,146.697,-4.472
0.172,-1.019,0.802,0.281,166.049,-2.877
0.174,-1.016,0.789,0.576,185.350,-1.329
0.171,-1.011,0.776,0.937,202.797,-0.445
0.169,-1.002,0.761,1.035,220.415,0.909
0.168,-0.998,0.745,1.396,237.660,1.374
0.163,-0.990,0.731,1.467,252.785,2.375
0.156,-0.984,0.713,1.465,267.202,3.303
0.154,-0.979,0.693,1.732,282.307,3.592
0.153,-0.973,0.674,2.358,297.598,3.629
0.150,-0.967,0.655,3.026,311.005,3.488
0.143,-0.960,0.633,3.570,321.478,3.163
0.136,-0.953,0.612,3.745,329.755,2.659
0.126,-0.948,0.588,3.657,333.174,1.906
0.119,-0.946,0.566,3.234,337.225,0.993
0.112,-0.945,0.542,2.673,339.349,0.019
0.106,-0.945,0.518,2.070,339.219,-0.925
0.103,-0.944,0.495,1.472,336.594,-1.867
0.100,-0.941,0.470,0.679,332.110,-2.710
0.097,-0.937,0.444,-0.496,326.084,-3.512
0.096,-0.931,0.417,-1.910,319.700,-4.332
0.094,-0.925,0.386,-3.550,311.685,-5.271
0.090,-0.921,0.353,-5.299,303.081,-6.379
0.087,-0.917,0.318,-7.042,294.352,-7.571
0.083,-0.916,0.283,-8.310,285.805,-8.885
0.080,-0.917,0.246,-8.969,277.616,-10.210
0.076,-0.918,0.209,-9.015,269.852,-11.460
0.071,-0.919,0.174,-8.570,262.554,-12.581
0.065,-0.920,0.140,-7.513,255.676,-13.509
0.059,-0.920,0.108,-5.795,249.210,-14.169
0.053,-0.919,0.078,-3.378,243.126,-14.555
0.046,-0.919,0.051,-0.820,237.463,-14.673
0.039,-0.919,0.030,1.663,232.318,-14.603
0.031,-0.918,0.007,4.075,227.054,-14.282
0.021,-0.913,-0.011,6.717,221.743,-14.284
0.011,-0.913,-0.033,9.412,214.782,-13.009
0.008,-0.913,-0.047,13.147,210.125,-12.579
-0.007,-0.908,-0.064,14.222,202.128,-10.963
-0.013,-0.909,-0.076,14.954,195.543,-9.316
-0.020,-0.914,-0.087,16.334,189.352,-8.245
-0.029,-0.916,-0.097,17.780,183.112,-7.918
-0.039,-0.912,-0.107,18.567,176.517,-7.823
-0.050,-0.910,-0.115,18.788,169.606,-7.885
-0.061,-0.907,-0.122,18.709,162.336,-8.203
-0.072,-0.905,-0.128,18.443,155.025,-8.624
-0.083,-0.904,-0.132,18.143,148.102,-9.081
-0.093,-0.904,-0.136,17.986,141.737,-9.465
-0.103,-0.905,-0.139,18.037,136.013,-9.553
-0.113,-0.907,-0.141,18.362,131.031,-9.287
-0.124,-0.909,-0.142,18.968,126.348,-8.667
-0.134,-0.908,-0.143,19.665,121.887,-7.892
-0.143,-0.906,-0.145,20.231,117.570,-7.294
-0.151,-0.903,-0.147,20.642,113.424,-6.983
-0.159,-0.901,-0.148,20.905,109.421,-6.908
-0.167,-0.899,-0.148,21.056,105.596,-6.977
-0.174,-0.898,-0.147,21.122,101.898,-7.140
-0.181,-0.897,-0.145,21.137,98.276,-7.273
-0.188,-0.897,-0.143,21.144,94.659,-7.328
-0.194,-0.898,-0.141,21.122,91.207,-7.207
-0.200,-0.899,-0.139,21.104,87.790,-6.840
-0.207,-0.900,-0.138,21.068,84.385,-6.297
-0.213,-0.901,-0.136,21.003,80.998,-5.640
-0.219,-0.902,-0.134,20.915,77.650,-4.933
-0.225,-0.902,-0.132,20.822,74.389,-4.279
-0.231,-0.901,-0.130,20.704,71.146,-3.870
-0.236,-0.900,-0.128,20.525,67.985,-3.677
-0.241,-0.899,-0.126,20.277,64.850,-3.682
-0.241,-0.899,-0.123,19.975,61.809,-3.807
-0.245,-0.899,-0.121,19.656,58.858,-3.981
-0.249,-0.900,-0.118,19.283,56.003,-4.126
-0.253,-0.901,-0.116,18.882,53.272,-4.223
-0.256,-0.903,-0.113,18.466,50.678,-4.285
-0.260,-0.904,-0.111,18.062,48.217,-4.330
-0.263,-0.905,-0.108,17.607,45.866,-4.375
-0.267,-0.904,-0.106,17.013,43.615,-4.483
-0.271,-0.904,-0.104,16.337,41.413,-4.669
-0.274,-0.903,-0.102,15.516,39.150,-4.926
-0.278,-0.902,-0.100,14.543,36.535,-4.929
-0.285,-0.903,-0.095,13.569,33.814,-5.193
-0.289,-0.901,-0.094,12.952,32.658,-5.038
-0.287,-0.906,-0.093,12.062,30.693,-4.907
-0.297,-0.905,-0.089,10.718,27.303,-4.764
-0.295,-0.904,-0.087,9.709,25.759,-4.508
-0.296,-0.908,-0.087,9.467,24.508,-4.333
-0.298,-0.912,-0.086,9.674,23.389,-3.854
-0.300,-0.914,-0.085,10.197,22.563,-3.266
-0.302,-0.915,-0.084,10.653,21.656,-2.680
-0.304,-0.915,-0.082,11.049,20.808,-2.483
-0.306,-0.912,-0.080,11.263,20.003,-2.473
-0.308,-0.911,-0.079,11.217,19.038,-2.731
-0.310,-0.910,-0.077,11.048,18.029,-3.219
-0.311,-0.909,-0.075,10.731,16.937,-3.873
-0.313,-0.909,-0.072,10.275,15.838,-4.572
-0.315,-0.910,-0.069,9.768,14.781,-5.234
-0.316,-0.912,-0.067,9.302,13.790,-5.663
-0.317,-0.914,-0.064,8.929,12.851,-5.871
-0.319,-0.917,-0.062,8.625,12.066,-5.803
-0.321,-0.920,-0.060,8.400,11.262,-5.601
-0.322,-0.921,-0.058,8.143,10.445,-5.375
-0.322,-0.921,-0.056,7.776,9.635,-5.197
-0.323,-0.921,-0.055,7.373,8.852,-5.068
-0.323,-0.921,-0.054,6.994,8.081,-4.985
-0.324,-0.922,-0.053,6.687,7.365,-4.928
-0.325,-0.923,-0.053,6.465,6.712,-4.882
-0.325,-0.924,-0.053,6.323,6.130,-4.847
-0.326,-0.925,-0.052,6.222,5.601,-4.801
-0.327,-0.926,-0.050,6.171,5.139,-4.733
-0.328,-0.927,-0.047,6.157,4.708,-4.651
-0.328,-0.928,-0.045,6.142,4.302,-4.540
-0.329,-0.929,-0.044,6.046,3.909,-4.409
-0.330,-0.929,-0.042,5.881,3.509,-4.253
-0.331,-0.930,-0.040,5.654,3.094,-4.069
-0.332,-0.930,-0.039,5.370,2.669,-3.856
-0.333,-0.931,-0.038,5.063,2.246,-3.668
-0.334,-0.931,-0.038,4.765,1.831,-3.524
-0.335,-0.932,-0.038,4.519,1.426,-3.434
-0.335,-0.932,-0.038,4.311,1.008,-3.380
-0.336,-0.933,-0.037,4.122,0.589,-3.343
-0.336,-0.933,-0.036,3.939,0.171,-3.307
-0.336,-0.934,-0.036,3.792,-0.224,-3.266
-0.336,-0.935,-0.035,3.692,-0.599,-3.212
-0.337,-0.935,-0.034,3.644,-0.930,-3.136
-0.337,-0.936,-0.033,3.646,-1.189,-3.046
-0.337,-0.937,-0.032,3.708,-1.391,-2.933
-0.338,-0.937,-0.032,3.775,-1.563,-2.803
-0.339,-0.938,-0.031,3.823,-1.734,-2.677
-0.339,-0.938,-0.030,3.872,-1.904,-2.570
-0.340,-0.938,-0.030,3.929,-2.075,-2.486
-0.340,-0.938,-0.029,3.968,-2.260,-2.410
-0.341,-0.938,-0.028,3.980,-2.465,-2.346
-0.341,-0.938,-0.027,3.969,-2.695,-2.279
-0.341,-0.938,-0.026,3.923,-2.935,-2.207
-0.341,-0.938,-0.025,3.852,-3.186,-2.123
-0.342,-0.938,-0.024,3.751,-3.448,-2.035
-0.342,-0.938,-0.023,3.616,-3.696,-1.936
-0.342,-0.938,-0.022,3.457,-3.919,-1.839
-0.343,-0.939,-0.022,3.283,-4.111,-1.747
-0.343,-0.939,-0.022,3.126,-4.274,-1.652
-0.344,-0.939,-0.021,2.999,-4.406,-1.565
-0.344,-0.939,-0.020,2.899,-4.524,-1.487
-0.345,-0.940,-0.019,2.836,-4.643,-1.412
-0.345,-0.940,-0.018,2.811,-4.755,-1.342
-0.346,-0.941,-0.016,2.809,-4.856,-1.260
-0.347,-0.941,-0.015,2.805,-4.965,-1.162
-0.347,-0.942,-0.014,2.784,-5.064,-1.043
-0.347,-0.942,-0.013,2.745,-5.148,-0.918
-0.347,-0.943,-0.012,2.688,-5.228,-0.788
-0.347,-0.943,-0.011,2.599,-5.311,-0.656
-0.347,-0.943,-0.011,2.486,-5.393,-0.537
-0.347,-0.943,-0.011,2.391,-5.472,-0.435
-0.348,-0.943,-0.010,2.316,-5.557,-0.352
-0.348,-0.943,-0.010,2.247,-5.627,-0.283
-0.348,-0.943,-0.009,2.186,-5.691,-0.223
-0.348,-0.943,-0.008,2.130,-5.747,-0.185
-0.348,-0.943,-0.007,2.088,-5.788,-0.150
-0.348,-0.943,-0.006,2.031,-5.808,-0.116
-0.348,-0.943,-0.005,1.946,-5.821,-0.073
-0.348,-0.942,-0.005,1.827,-5.823,-0.035
-0.349,-0.942,-0.004,1.699,-5.815,0.006
-0.349,-0.943,-0.004,1.554,-5.809,0.046
-0.349,-0.943,-0.004,1.415,-5.817,0.086
-0.350,-0.943,-0.004,1.295,-5.844,0.132
-0.350,-0.943,-0.003,1.208,-5.886,0.158
-0.350,-0.943,-0.003,1.140,-5.999,0.221
-0.351,-0.943,-0.002,1.096,-6.018,0.273
-0.352,-0.943,-0.002,1.011,-6.159,0.360
-0.352,-0.943,-0.001,0.946,-6.255,0.417
-0.352,-0.943,-0.001,0.920,-6.339,0.452
-0.352,-0.943,-0.000,0.874,-6.420,0.485
-0.352,-0.943,0.000,0.750,-6.550,0.521
-0.352,-0.942,0.000,0.586,-6.687,0.586

-0.361,-0.936,0.568,-1.036,-23.374,1.413
-0.350,-0.937,0.583,-2.156,-36.181,2.237
-0.342,-0.937,0.599,-2.909,-46.104,3.027
-0.333,-0.935,0.614,-3.444,-53.301,3.793
-0.323,-0.929,0.628,-4.021,-57.981,4.529
-0.313,-0.921,0.640,-4.857,-60.714,5.178
-0.302,-0.912,0.654,-6.029,-62.314,5.654
-0.289,-0.903,0.665,-7.808,-62.230,5.872
-0.275,-0.896,0.675,-10.147,-60.944,5.730
-0.261,-0.892,0.685,-12.585,-59.132,5.285
-0.247,-0.891,0.696,-14.951,-56.810,4.487
-0.232,-0.893,0.708,-17.169,-54.573,3.256
-0.217,-0.898,0.721,-19.158,-52.311,1.708
-0.202,-0.905,0.734,-20.650,-49.382,-0.096
-0.187,-0.915,0.746,-21.690,-45.297,-1.907
-0.171,-0.925,0.755,-22.239,-39.475,-3.535
-0.155,-0.934,0.761,-22.357,-32.331,-4.817
-0.139,-0.942,0.765,-22.139,-23.715,-5.612
-0.124,-0.947,0.767,-21.528,-13.949,-6.084
-0.111,-0.950,0.767,-20.645,-2.842,-6.388
-0.099,-0.951,0.767,-19.495,8.860,-6.391
-0.089,-0.953,0.764,-17.751,21.689,-6.699
-0.079,-0.953,0.763,-16.053,34.006,-6.741
-0.074,-0.953,0.761,-14.544,45.846,-6.865
-0.067,-0.955,0.759,-13.019,58.413,-7.395
-0.059,-0.957,0.756,-11.615,71.112,-8.199
-0.053,-0.958,0.754,-10.417,83.597,-9.043
-0.047,-0.960,0.751,-9.462,95.838,-9.834
-0.043,-0.963,0.749,-8.548,107.789,-10.632
-0.039,-0.965,0.746,-7.451,119.996,-11.494
-0.035,-0.968,0.744,-6.051,132.352,-12.425
-0.031,-0.971,0.743,-4.255,144.865,-13.313
-0.029,-0.972,0.741,-1.927,157.827,-14.197
-0.027,-0.972,0.740,0.535,170.636,-15.003
-0.027,-0.971,0.735,3.137,183.174,-15.760
-0.028,-0.969,0.728,5.631,195.158,-16.567
-0.027,-0.965,0.718,8.008,206.192,-17.423
-0.027,-0.960,0.707,9.960,216.571,-18.431
-0.026,-0.955,0.693,11.591,225.966,-19.522
-0.026,-0.951,0.678,13.050,234.871,-20.646
-0.026,-0.948,0.662,14.365,242.967,-21.889
-0.026,-0.946,0.646,15.545,249.858,-23.322
-0.025,-0.945,0.629,16.573,256.083,-24.955
-0.024,-0.946,0.611,17.310,260.949,-26.892
-0.022,-0.946,0.592,17.739,264.632,-28.978
-0.020,-0.946,0.571,17.951,267.051,-31.174
-0.017,-0.947,0.548,17.926,267.717,-33.341
-0.013,-0.949,0.523,17.689,266.843,-35.229
-0.010,-0.951,0.496,17.201,264.352,-36.778
-0.005,-0.953,0.468,16.566,260.873,-38.097
0.000,-0.956,0.440,15.914,256.660,-39.143
0.006,-0.959,0.412,15.389,252.187,-39.936
0.010,-0.961,0.383,15.028,247.038,-40.375
0.012,-0.964,0.354,14.882,241.222,-40.559
0.014,-0.966,0.326,14.990,235.272,-40.578
0.015,-0.968,0.298,15.390,229.425,-40.415
0.013,-0.970,0.271,16.171,223.854,-40.041
0.012,-0.972,0.245,17.404,218.657,-39.435
0.009,-0.975,0.222,18.969,213.861,-38.697
0.006,-0.978,0.201,20.711,209.430,-37.848
0.003,-0.981,0.182,22.349,204.326,-36.700
-0.002,-0.982,0.165,23.742,198.362,-35.252
-0.007,-0.983,0.150,24.798,192.045,-33.517
-0.013,-0.982,0.135,25.477,185.477,-32.002
-0.019,-0.978,0.121,25.448,178.518,-30.634
-0.025,-0.976,0.109,24.961,168.907,-26.211
-0.032,-0.978,0.100,25.711,164.997,-25.074
-0.044,-0.972,0.088,25.330,157.613,-22.328
-0.056,-0.970,0.078,24.489,151.032,-19.668
-0.063,-0.970,0.069,24.016,145.366,-17.764
-0.069,-0.969,0.061,23.740,140.075,-17.009
-0.077,-0.965,0.055,23.342,134.834,-16.620
-0.086,-0.961,0.051,22.718,129.543,-16.364
-0.095,-0.957,0.049,21.854,124.231,-16.104
-0.105,-0.954,0.047,20.754,118.988,-15.653
-0.115,-0.952,0.046,19.662,114.089,-15.207
-0.125,-0.949,0.045,18.524,109.475,-14.748
-0.134,-0.945,0.043,17.314,105.039,-14.277
-0.144,-0.943,0.042,16.144,100.859,-13.837
-0.153,-0.941,0.040,15.100,97.034,-13.445
-0.161,-0.939,0.038,14.236,93.514,-13.097
-0.169,-0.938,0.036,13.647,90.267,-12.779
-0.177,-0.937,0.034,13.235,87.210,-12.502
-0.185,-0.935,0.034,12.917,84.253,-12.227
-0.193,-0.934,0.035,12.614,81.310,-11.918
-0.201,-0.933,0.035,12.325,78.477,-11.539
-0.208,-0.933,0.036,12.096,75.790,-11.070
-0.214,-0.932,0.036,11.949,73.304,-10.432
-0.221,-0.932,0.037,11.841,70.959,-9.682
-0.227,-0.931,0.038,11.737,68.688,-8.868
-0.233,-0.930,0.039,11.654,66.464,-8.089
-0.238,-0.929,0.040,11.552,64.309,-7.399
-0.243,-0.928,0.040,11.438,62.142,-6.922
-0.248,-0.927,0.039,11.258,59.952,-7.048
-0.252,-0.923,0.041,10.749,58.056,-7.351
-0.258,-0.919,0.041,10.063,56.105,-7.687
-0.263,-0.919,0.040,9.391,54.237,-7.750
-0.261,-0.922,0.042,9.189,52.924,-7.960
-0.268,-0.923,0.042,8.345,49.247,-7.757
-0.274,-0.922,0.044,7.119,46.488,-7.664
-0.274,-0.923,0.045,6.223,44.578,-7.661
-0.277,-0.925,0.044,5.467,42.675,-7.589
-0.280,-0.927,0.044,4.961,40.925,-7.639
-0.283,-0.927,0.043,4.670,39.363,-7.834
-0.285,-0.927,0.043,4.443,37.803,-8.076
-0.288,-0.928,0.043,4.233,36.154,-8.466
-0.291,-0.926,0.044,3.971,34.299,-8.950
-0.292,-0.925,0.042,3.332,31.312,-9.352
-0.292,-0.929,0.049,3.277,30.557,-9.473
-0.297,-0.931,0.048,2.750,27.484,-9.356
-0.299,-0.931,0.050,2.073,25.651,-9.263
-0.297,-0.933,0.051,1.866,24.469,-9.264
-0.297,-0.935,0.052,1.900,23.494,-9.175
-0.299,-0.937,0.053,2.015,22.698,-8.919
-0.301,-0.937,0.053,2.141,21.910,-8.519
-0.303,-0.937,0.054,2.256,21.164,-8.003
-0.305,-0.937,0.054,2.418,20.479,-7.515
-0.307,-0.937,0.055,2.609,19.769,-7.201
-0.308,-0.936,0.055,2.814,19.067,-7.110
-0.309,-0.935,0.056,2.968,18.331,-7.170
-0.310,-0.934,0.057,3.052,17.528,-7.278
-0.312,-0.933,0.058,3.083,16.730,-7.380
-0.313,-0.933,0.060,3.096,15.973,-7.434
-0.315,-0.934,0.062,3.092,15.274,-7.426
-0.316,-0.934,0.063,3.041,14.607,-7.388
-0.317,-0.934,0.064,2.918,13.958,-7.347
-0.318,-0.935,0.064,2.724,13.299,-7.304
-0.320,-0.935,0.065,2.490,12.633,-7.260
-0.321,-0.935,0.065,2.215,11.965,-7.212
-0.322,-0.935,0.065,1.945,11.308,-7.167
-0.324,-0.936,0.066,1.733,10.692,-7.122
-0.325,-0.936,0.066,1.579,10.116,-7.074
-0.326,-0.937,0.067,1.440,9.584,-7.013
-0.327,-0.938,0.067,1.315,9.099,-6.955
-0.328,-0.939,0.067,1.201,8.653,-6.903
-0.330,-0.940,0.067,1.089,8.248,-6.857
-0.331,-0.941,0.068,0.972,7.867,-6.803
-0.332,-0.941,0.068,0.854,7.492,-6.749
-0.334,-0.942,0.068,0.722,7.106,-6.689
-0.335,-0.943,0.068,0.576,6.732,-6.623
-0.336,-0.944,0.067,0.436,6.389,-6.561
-0.336,-0.945,0.067,0.341,6.091,-6.497
-0.336,-0.945,0.066,0.277,5.815,-6.424
-0.336,-0.946,0.066,0.219,5.548,-6.345
-0.336,-0.947,0.065,0.153,5.282,-6.248
-0.335,-0.947,0.064,0.086,5.009,-6.143
-0.335,-0.948,0.064,0.019,4.733,-6.040
-0.335,-0.949,0.063,-0.034,4.450,-5.942
-0.334,-0.949,0.063,-0.073,4.153,-5.841
-0.334,-0.949,0.062,-0.120,3.827,-5.734
-0.334,-0.950,0.062,-0.173,3.444,-5.629
-0.334,-0.951,0.061,-0.199,3.055,-5.514
-0.333,-0.952,0.061,-0.186,2.673,-5.391
-0.333,-0.952,0.060,-0.122,2.298,-5.249
-0.333,-0.953,0.060,-0.043,1.919,-5.081
-0.332,-0.953,0.061,0.044,1.529,-4.895
-0.332,-0.953,0.061,0.127,1.121,-4.683
-0.332,-0.954,0.062,0.181,0.706,-4.446
-0.331,-0.954,0.063,0.200,0.313,-4.212
-0.331,-0.954,0.064,0.160,-0.054,-3.970
-0.330,-0.954,0.065,0.073,-0.404,-3.732
-0.330,-0.953,0.066,-0.063,-0.746,-3.501
-0.330,-0.953,0.067,-0.235,-1.068,-3.287
-0.330,-0.952,0.068,-0.447,-1.368,-3.090
-0.330,-0.952,0.068,-0.658,-1.635,-2.909
-0.329,-0.952,0.068,-0.837,-1.875,-2.742
-0.329,-0.952,0.069,-0.966,-2.076,-2.594
-0.329,-0.952,0.069,-1.034,-2.264,-2.454
-0.329,-0.951,0.071,-1.063,-2.438,-2.324
-0.329,-0.951,0.072,-1.071,-2.612,-2.196
-0.330,-0.950,0.073,-1.064,-2.764,-2.065
-0.330,-0.950,0.074,-1.041,-2.902,-1.935
-0.330,-0.949,0.075,-1.007,-3.026,-1.858
-0.330,-0.949,0.076,-1.024,-3.213,-1.728
-0.330,-0.949,0.078,-0.917,-3.163,-1.668
-0.331,-0.948,0.078,-0.940,-3.350,-1.542
-0.331,-0.947,0.079,-0.996,-3.412,-1.504
-0.331,-0.947,0.081,-0.993,-3.366,-1.529
-0.330,-0.947,0.082,-0.980,-3.251,-1.576
-0.330,-0.946,0.083,-1.037,-3.172,-1.606
-0.330,-0.946,0.085,-1.151,-3.085,-1.630
-0.330,-0.946,0.086,-1.219,-2.941,-1.650
-0.330,-0.946,0.087,-1.242,-2.770,-1.663
-0.330,-0.945,0.087,-1.218,-2.589,-1.693
-0.331,-0.945,0.088,-1.141,-2.409,-1.747
-0.331,-0.945,0.088,-0.998,-2.219,-1.805
-0.331,-0.945,0.089,-0.832,-2.043,-1.866
-0.331,-0.945,0.089,-0.663,-1.890,-1.915
-0.331,-0.945,0.090,-0.523,-1.778,-1.958
-0.330,-0.945,0.091,-0.450,-1.697,-2.007
-0.330,-0.945,0.091,-0.434,-1.640,-2.072
-0.330,-0.945,0.092,-0.484,-1.587,-2.142
-0.329,-0.945,0.092,-0.589,-1.549,-2.219
-0.329,-0.945,0.092,-0.732,-1.502,-2.282
-0.329,-0.946,0.092,-0.897,-1.434,-2.329
-0.329,-0.947,0.091,-1.020,-1.354,-2.361
-0.328,-0.947,0.091,-1.096,-1.244,-2.380
-0.328,-0.948,0.090,-1.110,-1.121,-2.383
-0.327,-0.949,0.089,-1.069,-0.992,-2.378

0.071,-0.904,0.909,-2.032,0.707,-3.794
0.078,-0.905,0.922,-2.865,3.146,-5.340
0.087,-0.907,0.936,-3.542,6.753,-6.944
0.098,-0.910,0.950,-4.146,11.508,-8.457
0.110,-0.915,0.962,-4.707,17.688,-9.768
0.124,-0.920,0.970,-5.168,25.444,-10.778
0.139,-0.927,0.976,-5.397,34.945,-11.598
0.153,-0.934,0.979,-5.329,46.163,-12.252
0.166,-0.942,0.981,-4.967,59.636,-12.796
0.176,-0.948,0.980,-4.210,74.184,-13.277
0.185,-0.954,0.978,-3.087,89.565,-13.752
0.193,-0.959,0.975,-1.626,105.635,-14.328
0.200,-0.964,0.972,0.268,122.031,-15.097
0.205,-0.969,0.966,2.382,138.333,-16.005
0.209,-0.974,0.958,4.584,154.738,-16.958
0.213,-0.978,0.946,6.922,171.884,-17.913
0.215,-0.981,0.930,9.225,188.518,-19.204
0.218,-0.981,0.913,11.016,205.538,-19.980
0.221,-0.983,0.895,13.115,222.047,-21.289
0.218,-0.981,0.878,14.158,237.257,-21.690
0.213,-0.981,0.860,14.952,251.707,-22.234
0.210,-0.983,0.842,15.495,265.863,-22.959
0.207,-0.985,0.820,15.786,276.633,-23.689
0.203,-0.986,0.799,15.728,287.624,-24.275
0.200,-0.987,0.776,15.382,297.163,-24.889
0.200,-0.990,0.752,14.827,306.282,-25.846
0.202,-0.993,0.724,14.131,314.405,-26.861
0.203,-1.001,0.692,13.427,321.479,-27.611
0.206,-1.005,0.657,13.002,327.689,-28.172
0.209,-1.011,0.621,12.870,332.353,-28.631
0.212,-1.014,0.583,13.067,335.503,-28.913
0.210,-1.016,0.547,13.358,334.551,-28.911
0.206,-1.016,0.514,13.572,331.079,-28.785
0.207,-1.013,0.484,13.689,327.157,-28.584
0.207,-1.011,0.456,13.746,321.732,-28.341
0.204,-1.009,0.430,13.619,314.365,-27.989
0.199,-1.008,0.404,13.365,305.828,-27.590
0.195,-1.007,0.378,13.075,297.002,-27.161
0.190,-1.008,0.351,12.839,288.456,-26.727
0.184,-1.009,0.322,12.628,280.547,-26.254
0.178,-1.010,0.291,12.445,273.470,-25.754
0.172,-1.010,0.260,12.324,267.020,-25.227
0.165,-1.010,0.229,12.316,261.024,-24.657
0.156,-1.010,0.201,13.118,255.501,-24.789
0.150,-1.003,0.178,12.542,248.480,-23.587
0.138,-1.018,0.155,13.362,242.852,-22.804
0.133,-1.016,0.133,14.577,237.801,-20.709
0.113,-1.009,0.117,14.825,231.612,-17.258
0.108,-1.008,0.097,15.989,225.897,-14.354
0.099,-1.009,0.080,18.599,219.985,-12.513
0.089,-1.005,0.065,21.440,213.720,-11.400
0.078,-0.996,0.051,23.263,206.657,-11.045
0.066,-0.987,0.040,24.030,198.796,-11.008
0.055,-0.979,0.030,24.130,190.420,-11.208
0.044,-0.973,0.019,23.916,181.631,-11.475
0.033,-0.969,0.009,23.652,172.795,-11.951
0.023,-0.966,0.000,23.381,164.363,-12.554
0.012,-0.963,-0.007,23.105,156.365,-13.076
0.002,-0.962,-0.013,22.816,148.959,-13.343
-0.009,-0.962,-0.017,22.532,142.097,-13.292
-0.019,-0.962,-0.020,22.201,135.649,-13.056
-0.028,-0.960,-0.023,21.834,129.543,-12.741
-0.037,-0.958,-0.025,21.411,123.750,-12.459
-0.046,-0.955,-0.027,20.919,118.185,-12.239
-0.055,-0.957,-0.029,20.336,112.771,-12.069
-0.064,-0.955,-0.030,19.752,107.421,-11.934
-0.072,-0.953,-0.032,19.158,102.242,-11.761
-0.080,-0.953,-0.034,18.712,97.315,-11.493
-0.088,-0.954,-0.036,18.444,92.639,-11.104
-0.096,-0.955,-0.037,18.382,88.171,-10.510
-0.103,-0.955,-0.037,18.436,83.824,-9.792
-0.110,-0.956,-0.037,18.551,79.549,-9.007
-0.118,-0.956,-0.037,18.655,75.289,-8.222
-0.125,-0.955,-0.036,18.694,71.063,-7.530
-0.132,-0.954,-0.034,18.577,66.850,-7.062
-0.139,-0.953,-0.033,18.303,62.632,-6.773
-0.145,-0.951,-0.032,17.853,58.418,-6.619
-0.151,-0.951,-0.031,17.283,54.173,-6.549
-0.157,-0.951,-0.030,16.683,49.979,-6.477
-0.164,-0.951,-0.029,16.178,45.868,-6.327
-0.170,-0.953,-0.028,15.807,41.801,-6.072
-0.177,-0.954,-0.026,15.538,37.784,-5.706
-0.183,-0.956,-0.024,15.330,33.839,-5.246
-0.188,-0.957,-0.021,15.158,30.045,-4.773
-0.193,-0.958,-0.018,14.992,26.381,-4.351
-0.198,-0.957,-0.014,14.764,22.896,-3.896
-0.202,-0.959,-0.012,14.473,19.503,-3.674
-0.208,-0.956,-0.012,13.770,16.283,-3.630
-0.209,-0.960,-0.005,13.465,14.119,-3.094
-0.219,-0.963,-0.003,12.273,8.858,-2.939
-0.224,-0.959,0.003,10.705,5.498,-2.515
-0.226,-0.963,0.007,9.803,3.220,-2.343
-0.229,-0.967,0.010,9.332,1.365,-1.768
-0.233,-0.971,0.013,9.242,0.110,-0.860
-0.237,-0.974,0.016,9.479,-0.811,0.211
-0.241,-0.974,0.019,9.991,-1.564,1.073
-0.245,-0.972,0.022,10.403,-2.176,1.843
-0.249,-0.970,0.026,10.698,-2.801,2.368
-0.253,-0.968,0.029,10.830,-3.580,2.586
-0.256,-0.965,0.033,10.814,-4.393,2.563
-0.260,-0.962,0.037,10.682,-5.259,2.461
-0.263,-0.961,0.042,10.399,-6.200,2.210
-0.266,-0.958,0.046,10.070,-7.007,1.937
-0.268,-0.956,0.050,9.727,-7.780,1.670
-0.271,-0.956,0.054,9.356,-8.403,1.584
-0.274,-0.956,0.058,8.998,-8.936,1.758
-0.277,-0.957,0.061,8.630,-9.412,2.158
-0.280,-0.955,0.065,8.214,-9.837,2.632
-0.282,-0.953,0.068,7.678,-10.211,3.054
-0.284,-0.951,0.070,7.141,-10.500,3.408
-0.287,-0.949,0.073,6.720,-10.670,3.686
-0.289,-0.948,0.075,6.425,-10.704,3.902
-0.292,-0.946,0.077,6.227,-10.661,4.062
-0.294,-0.945,0.080,6.108,-10.572,4.169
-0.297,-0.943,0.083,6.051,-10.469,4.209
-0.299,-0.941,0.086,6.028,-10.359,4.195
-0.301,-0.940,0.090,5.998,-10.238,4.138
-0.302,-0.939,0.093,5.915,-10.107,4.061
-0.303,-0.937,0.096,5.735,-9.968,3.977
-0.304,-0.936,0.099,5.398,-9.854,3.904
-0.306,-0.934,0.102,4.890,-9.792,3.846
-0.307,-0.933,0.104,4.219,-9.755,3.811
-0.309,-0.932,0.106,3.504,-9.725,3.795
-0.310,-0.932,0.106,2.785,-9.703,3.794
-0.312,-0.932,0.107,2.112,-9.655,3.786
-0.313,-0.933,0.108,1.544,-9.585,3.757
-0.315,-0.933,0.110,1.081,-9.489,3.720
-0.316,-0.933,0.111,0.712,-9.375,3.691
-0.317,-0.932,0.113,0.449,-9.231,3.675
-0.318,-0.932,0.115,0.257,-9.052,3.667
-0.319,-0.932,0.116,0.117,-8.827,3.668
-0.320,-0.932,0.117,0.015,-8.544,3.665
-0.321,-0.932,0.117,-0.068,-8.232,3.658
-0.323,-0.932,0.118,-0.099,-7.915,3.613
-0.324,-0.932,0.118,-0.072,-7.612,3.543
-0.325,-0.931,0.118,-0.018,-7.335,3.446
-0.326,-0.931,0.119,0.026,-7.113,3.333
-0.327,-0.931,0.120,0.044,-6.935,3.215
-0.328,-0.931,0.120,0.045,-6.788,3.107
-0.329,-0.931,0.121,0.024,-6.665,3.008
-0.330,-0.931,0.122,-0.041,-6.569,2.931
-0.330,-0.931,0.123,-0.137,-6.473,2.874
-0.331,-0.931,0.123,-0.263,-6.347,2.837
-0.332,-0.931,0.124,-0.390,-6.202,2.815
-0.332,-0.931,0.124,-0.492,-6.042,2.795
-0.333,-0.931,0.123,-0.546,-5.869,2.772
-0.334,-0.931,0.123,-0.556,-5.699,2.746
-0.335,-0.932,0.123,-0.534,-5.527,2.712
-0.336,-0.932,0.123,-0.495,-5.354,2.674
-0.337,-0.932,0.123,-0.428,-5.174,2.623
-0.338,-0.932,0.123,-0.341,-4.999,2.629
-0.340,-0.930,0.123,-0.266,-4.771,2.444
-0.340,-0.930,0.122,-0.329,-4.560,2.730
-0.337,-0.931,0.123,0.053,-4.170,2.369
-0.340,-0.928,0.125,-0.167,-4.260,2.661
-0.342,-0.930,0.125,-0.491,-4.185,2.947
-0.341,-0.931,0.125,-0.549,-3.913,2.991
-0.339,-0.931,0.124,-0.567,-3.632,2.839
-0.340,-0.929,0.124,-0.734,-3.458,2.736
-0.342,-0.929,0.125,-1.047,-3.374,2.686
-0.343,-0.929,0.125,-1.291,-3.281,2.628
-0.344,-0.929,0.125,-1.449,-3.155,2.528
-0.345,-0.929,0.125,-1.582,-3.044,2.410
-0.346,-0.929,0.125,-1.679,-2.932,2.288
-0.346,-0.929,0.125,-1.706,-2.794,2.129
-0.347,-0.929,0.125,-1.704,-2.661,1.979
-0.348,-0.929,0.125,-1.738,-2.538,1.883
-0.349,-0.929,0.125,-1.796,-2.404,1.822
-0.350,-0.929,0.124,-1.844,-2.284,1.785
-0.351,-0.929,0.124,-1.927,-2.177,1.758
-0.352,-0.928,0.122,-2.000,-2.075,1.731
-0.352,-0.928,0.121,-2.032,-1.972,1.710
-0.353,-0.929,0.120,-1.996,-1.872,1.704
-0.354,-0.929,0.119,-1.884,-1.774,1.717
-0.355,-0.930,0.118,-1.717,-1.684,1.741
-0.355,-0.930,0.118,-1.548,-1.619,1.782
-0.356,-0.930,0.119,-1.420,-1.579,1.823
-0.356,-0.930,0.119,-1.367,-1.556,1.860
-0.357,-0.929,0.119,-1.385,-1.537,1.884
-0.357,-0.929,0.119,-1.492,-1.521,1.888
-0.357,-0.929,0.118,-1.671,-1.509,1.875
-0.358,-0.928,0.116,-1.906,-1.505,1.854
-0.359,-0.928,0.115,-2.146,-1.514,1.813
-0.359,-0.928,0.113,-2.354,-1.544,1.761
-0.360,-0.929,0.112,-2.538,-1.568,1.711
-0.361,-0.929,0.111,-2.684,-1.594,1.690
-0.362,-0.929,0.110,-2.805,-1.626,1.697
-0.362,-0.929,0.109,-2.941,-1.676,1.738
-0.363,-0.929,0.109,-3.105,-1.738,1.807
-0.363,-0.929,0.108,-3.306,-1.806,1.899
-0.363,-0.929,0.108,-3.547,-1.873,1.944
-0.363,-0.929,0.107,-3.899,-1.858,1.954
-0.363,-0.929,0.105,-4.131,-1.878,2.080
-0.361,-0.930,0.103,-4.578,-2.226,2.407
-0.363,-0.929,0.103,-5.452,-2.633,2.808
-0.361,-0.929,0.102,-6.226,-2.637,3.061
-0.358,-0.930,0.102,-6.637,-2.486,3.208
-0.356,-0.931,0.102,-7.047,-2.297,3.419
-0.355,-0.931,0.103,-7.644,-2.199,3.641

-0.056,-1.103,0.701,-8.648,-23.979,4.011
-0.045,-1.110,0.716,-9.585,-39.714,4.512
-0.028,-1.116,0.729,-10.382,-49.269,5.169
-0.011,-1.121,0.742,-11.046,-53.702,5.733
0.007,-1.123,0.754,-11.606,-54.910,6.430
0.023,-1.124,0.766,-11.984,-54.392,7.175
0.039,-1.123,0.776,-12.120,-52.819,7.973
0.054,-1.121,0.785,-12.045,-50.678,8.799
0.068,-1.120,0.793,-11.804,-48.458,9.607
0.082,-1.117,0.799,-11.419,-45.793,10.317
0.094,-1.114,0.806,-10.910,-42.088,10.816
0.105,-1.110,0.811,-10.349,-37.312,11.124
0.114,-1.106,0.817,-9.789,-31.598,11.214
0.121,-1.101,0.821,-9.298,-24.502,11.113
0.127,-1.096,0.825,-8.889,-16.586,10.899
0.132,-1.090,0.828,-8.568,-7.966,10.477
0.136,-1.085,0.831,-8.377,1.240,10.106
0.140,-1.082,0.832,-8.054,10.652,9.383
0.144,-1.079,0.831,-7.522,19.996,8.762
0.148,-1.077,0.830,-6.583,29.320,7.953
0.151,-1.075,0.827,-5.344,39.104,7.194
0.155,-1.072,0.824,-3.877,49.199,6.591
0.159,-1.070,0.820,-2.086,59.568,5.889
0.163,-1.068,0.817,-0.156,70.143,4.984
0.167,-1.065,0.814,1.592,80.809,4.194
0.170,-1.062,0.810,3.085,91.930,3.525
0.172,-1.058,0.804,4.434,103.124,2.939
0.174,-1.053,0.797,5.582,114.428,2.404
0.175,-1.047,0.790,6.411,125.649,1.941
0.176,-1.039,0.784,6.914,136.699,1.476
0.175,-1.031,0.778,7.026,146.749,1.001
0.172,-1.022,0.773,6.793,156.019,0.382
0.168,-1.015,0.768,6.252,164.279,-0.451
0.166,-1.008,0.763,5.388,171.720,-1.465
0.163,-1.003,0.758,4.237,178.404,-2.611
0.162,-0.999,0.751,2.916,184.699,-3.763
0.161,-0.996,0.743,1.465,190.582,-4.884
0.161,-0.993,0.733,-0.125,196.234,-5.876
0.160,-0.992,0.719,-1.808,201.334,-6.635
0.159,-0.989,0.703,-3.220,206.120,-7.247
0.158,-0.987,0.684,-4.171,210.282,-7.666
0.156,-0.985,0.664,-4.471,213.891,-8.046
0.154,-0.983,0.645,-4.327,217.136,-8.442
0.151,-0.982,0.626,-3.697,220.004,-8.837
0.147,-0.980,0.607,-2.508,222.385,-9.283
0.142,-0.978,0.587,-0.914,224.387,-9.778
0.136,-0.976,0.568,0.604,225.772,-10.150
0.131,-0.974,0.549,1.730,226.778,-10.401
0.126,-0.972,0.529,2.517,227.316,-10.637
0.122,-0.969,0.507,2.957,227.375,-10.807
0.117,-0.966,0.480,3.164,226.958,-11.013
0.111,-0.961,0.456,3.178,225.879,-11.293
0.105,-0.956,0.431,3.054,224.502,-11.621
0.097,-0.952,0.404,2.982,222.842,-12.039
0.090,-0.949,0.379,3.049,221.061,-12.604
0.082,-0.946,0.356,3.365,219.124,-13.212
0.074,-0.944,0.334,3.845,217.084,-13.844
0.066,-0.941,0.314,4.296,214.647,-14.440
0.058,-0.938,0.294,4.605,211.809,-14.962
0.050,-0.936,0.275,4.812,208.523,-15.355
0.043,-0.935,0.254,4.973,204.917,-15.606
0.036,-0.934,0.234,5.074,201.258,-15.707
0.030,-0.934,0.214,5.153,197.533,-15.696
0.023,-0.933,0.196,5.211,193.795,-15.642
0.016,-0.932,0.178,5.240,190.066,-15.549
0.008,-0.930,0.162,5.271,186.344,-15.445
0.000,-0.929,0.147,5.298,182.603,-15.345
-0.007,-0.928,0.132,5.311,178.923,-15.249
-0.015,-0.926,0.117,5.324,175.333,-15.151
-0.022,-0.926,0.103,5.423,171.856,-15.309
-0.028,-0.924,0.089,5.518,168.492,-14.967
-0.037,-0.931,0.078,5.987,165.247,-15.069
-0.041,-0.925,0.063,6.660,162.174,-15.257
-0.053,-0.922,0.049,6.487,157.896,-14.738
-0.060,-0.925,0.034,6.561,153.844,-14.337
-0.065,-0.928,0.020,7.024,150.117,-14.306
-0.070,-0.926,0.008,7.488,146.447,-14.628
-0.077,-0.923,-0.004,7.699,142.518,-15.001
-0.086,-0.921,-0.015,7.750,138.185,-15.329
-0.095,-0.920,-0.024,7.719,133.338,-15.379
-0.103,-0.921,-0.031,7.661,128.399,-15.290
-0.110,-0.923,-0.037,7.801,123.903,-15.253
-0.117,-0.923,-0.042,7.988,119.499,-15.159
-0.124,-0.924,-0.046,8.186,115.176,-14.926
-0.132,-0.925,-0.051,8.476,111.028,-14.484
-0.140,-0.926,-0.055,8.890,107.004,-13.946
-0.148,-0.926,-0.059,9.220,102.983,-13.365
-0.156,-0.926,-0.062,9.434,98.913,-12.809
-0.164,-0.927,-0.065,9.578,94.912,-12.307
-0.171,-0.927,-0.068,9.687,90.981,-11.847
-0.178,-0.928,-0.069,9.795,87.184,-11.378
-0.185,-0.929,-0.071,9.950,83.547,-10.891
-0.191,-0.930,-0.071,10.170,80.072,-10.385
-0.198,-0.931,-0.070,10.428,76.915,-10.154
-0.202,-0.931,-0.070,10.497,73.772,-9.951
-0.208,-0.930,-0.069,10.331,69.828,-9.709
-0.213,-0.931,-0.065,10.320,67.797,-9.390
-0.218,-0.932,-0.065,10.115,64.376,-9.151
-0.226,-0.930,-0.064,9.500,60.400,-8.721
-0.231,-0.931,-0.063,8.879,57.390,-8.306
-0.236,-0.933,-0.063,8.515,54.670,-7.940
-0.241,-0.934,-0.063,8.201,52.047,-7.578
-0.246,-0.936,-0.062,7.907,49.593,-7.219
-0.250,-0.937,-0.061,7.681,47.359,-6.944
-0.253,-0.937,-0.059,7.494,45.237,-6.754
-0.257,-0.937,-0.056,7.318,43.209,-6.631
-0.261,-0.937,-0.054,7.164,41.319,-6.589
-0.265,-0.936,-0.052,7.003,39.490,-6.592
-0.269,-0.936,-0.051,6.805,37.683,-6.677
-0.272,-0.935,-0.049,6.590,36.021,-6.783
-0.275,-0.935,-0.047,6.396,34.404,-6.948
-0.279,-0.935,-0.045,6.192,32.769,-7.111
-0.282,-0.936,-0.044,6.009,31.182,-7.260
-0.284,-0.937,-0.043,5.805,29.539,-7.365
-0.287,-0.938,-0.042,6.159,28.043,-7.370
-0.289,-0.940,-0.040,6.044,26.697,-7.246
-0.292,-0.942,-0.038,5.905,25.283,-6.992
-0.290,-0.942,-0.035,5.681,23.792,-6.649
-0.292,-0.943,-0.032,5.347,22.398,-6.272
-0.294,-0.944,-0.031,4.952,21.144,-5.909
-0.295,-0.943,-0.029,4.513,19.999,-5.629
-0.297,-0.943,-0.028,4.093,18.962,-5.434
-0.299,-0.943,-0.028,3.746,18.031,-5.307
-0.301,-0.943,-0.028,3.521,17.155,-5.230
-0.303,-0.943,-0.027,3.478,16.320,-5.207
-0.305,-0.944,-0.027,3.533,15.503,-5.205
-0.306,-0.944,-0.026,3.624,14.699,-5.202
-0.308,-0.944,-0.024,3.712,13.857,-5.193
-0.309,-0.945,-0.022,3.789,12.999,-5.167
-0.309,-0.945,-0.020,3.781,12.131,-5.081
-0.310,-0.945,-0.018,3.629,11.279,-4.941
-0.311,-0.945,-0.016,3.319,10.470,-4.761
-0.311,-0.945,-0.015,2.877,9.703,-4.548
-0.312,-0.945,-0.014,2.384,8.992,-4.313
-0.313,-0.945,-0.014,1.950,8.342,-4.067
-0.314,-0.945,-0.014,1.633,7.747,-3.833
-0.315,-0.945,-0.014,1.455,7.217,-3.631
-0.317,-0.945,-0.015,1.425,6.709,-3.471
-0.318,-0.946,-0.014,1.488,6.197,-3.325
-0.318,-0.946,-0.013,1.625,5.659,-3.195
-0.319,-0.946,-0.011,1.775,5.086,-3.085
-0.320,-0.946,-0.010,1.918,4.483,-2.980
-0.320,-0.946,-0.008,2.036,3.880,-2.874
-0.321,-0.946,-0.007,2.095,3.295,-2.753
-0.321,-0.946,-0.006,2.066,2.726,-2.608
-0.321,-0.945,-0.005,1.979,2.171,-2.462
-0.322,-0.945,-0.004,1.878,1.642,-2.325
-0.322,-0.945,-0.003,1.774,1.155,-2.203
-0.323,-0.946,-0.002,1.713,0.716,-2.102
-0.324,-0.945,-0.002,1.678,0.309,-2.016
-0.325,-0.945,-0.001,1.676,-0.064,-1.948
-0.326,-0.945,0.000,1.704,-0.403,-1.891
-0.327,-0.945,0.002,1.761,-0.712,-1.840
-0.327,-0.945,0.003,1.854,-0.985,-1.791
-0.328,-0.945,0.004,1.916,-1.241,-1.725
-0.328,-0.945,0.006,1.934,-1.483,-1.645
-0.329,-0.944,0.007,1.901,-1.718,-1.566
-0.330,-0.944,0.008,1.842,-1.947,-1.484
-0.330,-0.944,0.008,1.757,-2.157,-1.409
-0.331,-0.943,0.009,1.678,-2.359,-1.346
-0.332,-0.943,0.009,1.633,-2.552,-1.310
-0.333,-0.943,0.009,1.612,-2.738,-1.295
-0.333,-0.943,0.010,1.623,-2.936,-1.391
-0.334,-0.942,0.012,1.612,-3.324,-1.223
-0.334,-0.942,0.014,1.848,-3.125,-1.568
-0.334,-0.940,0.015,1.783,-3.355,-1.498
-0.337,-0.941,0.016,1.610,-3.612,-1.292
-0.336,-0.943,0.017,1.671,-3.640,-1.240
-0.335,-0.943,0.018,1.782,-3.643,-1.362
-0.335,-0.941,0.019,1.681,-3.733,-1.449
-0.337,-0.941,0.020,1.457,-3.917,-1.488
-0.337,-0.941,0.020,1.256,-4.093,-1.517
-0.337,-0.941,0.020,1.148,-4.204,-1.601
-0.338,-0.941,0.021,1.054,-4.285,-1.656
-0.338,-0.942,0.021,0.969,-4.386,-1.721
-0.338,-0.942,0.022,0.916,-4.463,-1.785
-0.338,-0.942,0.022,0.884,-4.539,-1.825
-0.338,-0.942,0.022,0.896,-4.587,-1.869
-0.339,-0.942,0.023,0.940,-4.621,-1.888
-0.339,-0.942,0.024,0.985,-4.621,-1.908
-0.340,-0.942,0.025,0.994,-4.652,-1.904
-0.340,-0.942,0.026,0.995,-4.650,-1.927
-0.341,-0.942,0.026,0.980,-4.638,-1.952
-0.341,-0.942,0.026,0.965,-4.638,-1.970
-0.341,-0.942,0.027,0.956,-4.607,-1.977
-0.341,-0.943,0.028,0.944,-4.553,-1.982
-0.341,-0.943,0.028,0.907,-4.525,-1.969
-0.341,-0.942,0.029,0.851,-4.548,-1.942
-0.341,-0.942,0.029,0.832,-4.537,-1.957
-0.341,-0.942,0.030,0.817,-4.543,-1.987
-0.342,-0.943,0.030,0.753,-4.591,-2.015
-0.342,-0.943,0.030,0.666,-4.625,-2.048
-0.342,-0.943,0.030,0.592,-4.633,-2.102
-0.342,-0.943,0.030,0.490,-4.674,-2.157
-0.342,-0.943,0.031,0.343,-4.691,-2.202
-0.342,-0.944,0.031,0.213,-4.669,-2.255
-0.341,-0.944,0.031,0.105,-4.648,-2.293
-0.341,-0.944,0.031,0.018,-4.615,-2.308
-0.340,-0.944,0.030,-0.031,-4.598,-2.276

-0.363,-0.804,0.689,-0.833,-10.437,-2.731
-0.356,-0.805,0.697,-1.639,-15.095,-3.143
-0.349,-0.805,0.706,-2.453,-18.673,-3.432
-0.342,-0.806,0.713,-3.229,-21.247,-3.761
-0.334,-0.807,0.721,-3.896,-23.337,-4.164
-0.325,-0.809,0.729,-4.434,-24.591,-4.737
-0.315,-0.812,0.739,-4.863,-25.597,-5.466
-0.305,-0.817,0.750,-5.270,-26.160,-6.480
-0.294,-0.823,0.762,-5.677,-26.190,-7.650
-0.281,-0.830,0.774,-6.031,-25.405,-8.862
-0.266,-0.838,0.785,-6.329,-24.169,-10.084
-0.251,-0.845,0.796,-6.554,-22.698,-11.257
-0.235,-0.852,0.807,-6.699,-20.970,-12.210
-0.217,-0.858,0.817,-6.656,-18.040,-13.027
-0.204,-0.864,0.825,-6.406,-14.083,-13.706
-0.192,-0.869,0.832,-5.934,-9.129,-14.278
-0.181,-0.872,0.837,-5.157,-3.347,-14.737
-0.171,-0.875,0.841,-4.250,3.218,-15.172
-0.163,-0.878,0.846,-3.329,10.652,-15.668
-0.156,-0.881,0.850,-2.511,18.611,-16.295
-0.149,-0.883,0.854,-1.830,26.815,-17.023
-0.143,-0.886,0.858,-1.394,35.122,-17.855
-0.136,-0.891,0.861,-1.065,43.677,-18.820
-0.128,-0.895,0.860,-0.784,52.780,-19.790
-0.120,-0.900,0.858,-0.380,62.313,-20.807
-0.112,-0.905,0.855,0.195,72.206,-21.803
-0.105,-0.908,0.850,1.003,82.590,-22.752
-0.100,-0.910,0.846,2.020,93.240,-23.780
-0.095,-0.911,0.842,3.242,104.087,-24.834
-0.091,-0.912,0.838,4.543,115.171,-25.950
-0.087,-0.912,0.833,5.767,126.232,-27.062
-0.084,-0.911,0.827,6.783,137.301,-28.172
-0.081,-0.910,0.818,7.653,148.543,-29.240
-0.078,-0.907,0.806,8.261,159.512,-30.129
-0.076,-0.905,0.790,8.826,171.108,-31.028
-0.074,-0.902,0.772,9.383,182.096,-31.947
-0.071,-0.898,0.753,9.839,192.714,-32.948
-0.070,-0.894,0.732,10.193,202.814,-34.193
-0.067,-0.891,0.711,10.345,212.322,-35.635
-0.065,-0.888,0.690,10.281,221.136,-37.165
-0.063,-0.887,0.666,10.025,229.338,-38.722
-0.061,-0.888,0.640,9.529,236.594,-40.242
-0.060,-0.889,0.613,8.758,242.972,-41.670
-0.057,-0.892,0.585,7.734,247.673,-42.930
-0.053,-0.895,0.556,6.531,251.373,-43.983
-0.049,-0.898,0.527,5.281,253.300,-44.822
-0.045,-0.900,0.498,4.083,253.284,-45.530
-0.041,-0.901,0.471,3.009,251.552,-46.059
-0.039,-0.902,0.445,2.182,248.578,-46.439
-0.036,-0.901,0.418,1.549,244.666,-46.691
-0.036,-0.899,0.392,1.114,239.908,-46.844
-0.034,-0.897,0.363,0.881,234.524,-46.966
-0.035,-0.896,0.334,0.834,229.012,-47.014
-0.036,-0.896,0.305,0.993,223.588,-46.971
-0.037,-0.898,0.276,1.523,218.369,-46.751
-0.038,-0.902,0.247,2.320,213.414,-46.422
-0.039,-0.905,0.218,3.333,208.744,-45.968
-0.040,-0.909,0.193,4.485,204.298,-45.819
-0.040,-0.910,0.167,5.139,199.910,-45.524
-0.044,-0.910,0.143,5.080,191.909,-43.729
-0.046,-0.922,0.126,7.202,187.877,-42.504
-0.048,-0.924,0.103,8.476,183.426,-40.401
-0.060,-0.920,0.083,8.715,177.483,-37.532
-0.064,-0.922,0.067,9.025,172.010,-35.313
-0.067,-0.924,0.052,9.607,166.237,-33.903
-0.073,-0.923,0.039,10.004,160.046,-32.856
-0.080,-0.923,0.027,10.154,153.761,-32.097
-0.087,-0.924,0.017,10.163,147.384,-31.340
-0.095,-0.926,0.010,10.051,140.582,-30.417
-0.102,-0.928,0.003,9.924,133.944,-29.661
-0.110,-0.927,-0.003,9.686,127.344,-29.101
-0.118,-0.925,-0.008,9.106,120.717,-28.638
-0.126,-0.924,-0.013,8.447,114.319,-28.286
-0.134,-0.924,-0.018,7.806,108.251,-27.978
-0.141,-0.924,-0.021,7.249,102.584,-27.634
-0.149,-0.925,-0.023,6.791,97.336,-27.196
-0.156,-0.927,-0.025,6.510,92.513,-26.511
-0.164,-0.930,-0.027,6.382,88.054,-25.531
-0.171,-0.932,-0.029,6.384,83.777,-24.270
-0.179,-0.933,-0.029,6.434,79.701,-22.762
-0.186,-0.933,-0.029,6.533,75.966,-21.106
-0.192,-0.934,-0.028,6.731,72.573,-19.404
-0.197,-0.935,-0.027,7.026,69.456,-17.654
-0.203,-0.936,-0.026,7.329,66.593,-15.944
-0.209,-0.935,-0.025,7.584,63.808,-14.445
-0.214,-0.934,-0.025,7.756,61.075,-13.263
-0.220,-0.932,-0.024,7.841,58.374,-12.421
-0.225,-0.930,-0.023,7.826,55.678,-12.410
-0.228,-0.930,-0.021,7.504,52.819,-12.457
-0.235,-0.928,-0.020,6.826,48.694,-12.855
-0.241,-0.927,-0.016,6.576,47.132,-12.833
-0.242,-0.931,-0.017,6.421,44.908,-12.756
-0.251,-0.933,-0.017,6.121,40.695,-12.330
-0.256,-0.934,-0.014,5.886,37.899,-11.715
-0.257,-0.937,-0.012,5.888,35.919,-11.246
-0.260,-0.937,-0.010,5.866,33.740,-10.830
-0.264,-0.938,-0.008,5.655,31.624,-10.250
-0.267,-0.939,-0.007,5.508,29.894,-9.749
-0.270,-0.940,-0.005,5.370,28.279,-9.351
-0.273,-0.939,-0.003,5.175,26.773,-9.102
-0.276,-0.938,-0.002,4.938,25.437,-8.995
-0.279,-0.937,-0.001,4.672,24.164,-9.070
-0.282,-0.937,0.000,4.388,22.918,-9.272
-0.285,-0.936,0.002,4.137,21.844,-9.488
-0.287,-0.936,0.003,3.951,20.746,-9.720
-0.290,-0.936,0.005,3.803,19.631,-9.880
-0.292,-0.938,0.007,3.675,18.623,-9.878
-0.294,-0.940,0.008,3.659,17.693,-9.650
-0.296,-0.941,0.010,3.651,16.657,-9.380
-0.298,-0.941,0.011,3.613,15.653,-9.070
-0.299,-0.940,0.013,3.529,14.678,-8.730
-0.301,-0.940,0.015,3.412,13.695,-8.350
-0.301,-0.941,0.015,3.269,12.744,-7.960
-0.302,-0.941,0.016,3.096,11.873,-7.639
-0.302,-0.942,0.016,2.905,11.095,-7.411
-0.302,-0.941,0.017,2.668,10.378,-7.264
-0.301,-0.940,0.019,2.374,9.744,-7.147
-0.301,-0.939,0.020,2.056,9.136,-7.026
-0.301,-0.939,0.021,1.743,8.534,-6.879
-0.302,-0.939,0.022,1.492,7.938,-6.694
-0.303,-0.939,0.022,1.323,7.347,-6.499
-0.304,-0.940,0.022,1.243,6.743,-6.289
-0.305,-0.940,0.022,1.217,6.093,-6.065
-0.306,-0.941,0.023,1.225,5.399,-5.837
-0.306,-0.941,0.024,1.234,4.645,-5.599
-0.307,-0.941,0.025,1.191,3.836,-5.332
-0.306,-0.941,0.026,1.050,3.031,-5.030
-0.305,-0.942,0.028,0.780,2.245,-4.685
-0.304,-0.942,0.029,0.361,1.499,-4.305
-0.303,-0.942,0.029,-0.165,0.813,-3.881
-0.302,-0.943,0.029,-0.748,0.183,-3.429
-0.302,-0.944,0.029,-1.317,-0.430,-2.954
-0.302,-0.944,0.028,-1.823,-1.046,-2.468
-0.303,-0.945,0.028,-2.225,-1.695,-1.972
-0.304,-0.946,0.027,-2.492,-2.376,-1.464
-0.304,-0.946,0.028,-2.621,-3.081,-0.910
-0.305,-0.947,0.028,-2.606,-3.810,-0.319
-0.305,-0.948,0.029,-2.510,-4.537,0.291
-0.305,-0.949,0.030,-2.358,-5.263,0.911
-0.305,-0.950,0.031,-2.148,-5.959,1.537
-0.306,-0.950,0.031,-1.888,-6.580,2.172
-0.307,-0.950,0.032,-1.616,-7.116,2.791
-0.307,-0.950,0.032,-1.330,-7.555,3.397
-0.308,-0.949,0.032,-1.013,-7.873,3.972
-0.309,-0.947,0.032,-0.655,-8.140,4.463
-0.310,-0.946,0.032,-0.329,-8.669,5.265
-0.311,-0.946,0.034,0.509,-8.501,5.462
-0.313,-0.944,0.035,1.030,-8.812,6.096
-0.317,-0.945,0.036,1.562,-9.069,6.674
-0.319,-0.945,0.037,2.327,-9.248,6.971
-0.320,-0.945,0.039,3.143,-9.483,7.189
-0.323,-0.945,0.041,3.884,-9.718,7.403
-0.325,-0.944,0.043,4.550,-9.973,7.676
-0.327,-0.943,0.045,5.142,-10.168,8.018
-0.329,-0.942,0.047,5.619,-10.327,8.359
-0.329,-0.941,0.049,5.987,-10.411,8.621
-0.329,-0.939,0.050,6.177,-10.493,8.934
-0.329,-0.939,0.050,6.226,-10.576,9.244
-0.329,-0.939,0.050,6.212,-10.640,9.539
-0.328,-0.938,0.050,6.123,-10.733,9.874
-0.328,-0.938,0.048,6.044,-10.877,10.178
-0.329,-0.937,0.046,6.005,-11.148,10.502
-0.330,-0.938,0.044,5.996,-11.483,10.882
-0.331,-0.939,0.042,6.087,-11.971,11.332
-0.332,-0.939,0.041,6.231,-12.629,11.825
-0.332,-0.939,0.041,6.403,-13.427,12.403
-0.333,-0.939,0.040,6.486,-14.467,13.144
-0.334,-0.939,0.039,6.447,-15.588,13.999
-0.334,-0.939,0.037,6.230,-16.763,15.020
-0.334,-0.938,0.036,5.691,-17.999,16.105
-0.334,-0.938,0.034,4.978,-19.268,17.196
-0.335,-0.937,0.032,4.211,-20.620,18.212
-0.337,-0.936,0.029,3.483,-22.099,19.134
-0.340,-0.935,0.026,2.878,-23.631,19.974
-0.343,-0.934,0.022,2.419,-25.215,20.743
-0.346,-0.932,0.020,2.190,-26.871,21.406
-0.350,-0.931,0.018,2.096,-28.641,22.052
-0.353,-0.930,0.017,2.148,-30.390,22.701
-0.356,-0.930,0.017,2.297,-32.117,23.408
-0.359,-0.929,0.018,2.508,-33.720,24.189
-0.362,-0.927,0.018,2.698,-35.135,25.119
-0.364,-0.925,0.018,2.692,-36.415,26.143
-0.366,-0.922,0.018,2.444,-37.646,27.210
-0.369,-0.919,0.016,1.947,-38.947,28.238
-0.372,-0.915,0.015,1.213,-40.378,29.157
-0.374,-0.912,0.013,0.317,-41.971,29.916
-0.377,-0.910,0.012,-0.684,-43.727,30.345
-0.380,-0.907,0.015,-1.780,-46.631,30.562
-0.384,-0.904,0.015,-2.611,-47.725,31.029
-0.385,-0.905,0.014,-3.593,-50.345,31.526
-0.391,-0.902,0.015,-5.109,-53.828,32.183
-0.391,-0.900,0.016,-6.351,-56.094,32.735
-0.390,-0.899,0.017,-7.161,-57.903,33.185
-0.390,-0.898,0.017,-7.875,-59.656,33.662
-0.391,-0.895,0.018,-8.751,-61.398,34.207
-0.394,-0.891,0.017,-9.924,-63.208,34.745
-0.396,-0.888,0.015,-11.032,-64.893,35.207
-0.398,-0.886,0.013,-11.899,-66.619,35.611
-0.400,-0.884,0.012,-12.527,-68.465,35.879

0.063,-1.021,0.769,-12.694,-65.796,33.880
0.069,-1.022,0.763,-12.532,-63.157,32.133
0.076,-1.025,0.756,-12.091,-60.609,30.704
0.083,-1.029,0.750,-10.489,-57.472,29.307
0.090,-1.033,0.747,-9.370,-53.618,28.101
0.096,-1.037,0.747,-8.252,-49.200,26.880
0.102,-1.040,0.749,-7.335,-44.324,25.603
0.108,-1.043,0.756,-6.705,-38.812,24.372
0.115,-1.046,0.764,-6.371,-32.893,23.130
0.121,-1.049,0.773,-6.305,-26.521,21.854
0.129,-1.050,0.783,-6.477,-19.543,20.782
0.136,-1.052,0.793,-6.821,-11.824,19.679
0.144,-1.053,0.802,-7.310,-2.993,18.726
0.151,-1.054,0.808,-7.824,6.500,17.795
0.158,-1.054,0.812,-8.253,16.773,16.969
0.165,-1.053,0.810,-8.318,27.450,16.183
0.171,-1.054,0.806,-8.177,38.828,15.505
0.178,-1.055,0.801,-7.862,50.688,15.073
0.184,-1.057,0.796,-7.361,63.125,14.607
0.190,-1.058,0.792,-6.609,76.064,14.120
0.195,-1.059,0.790,-5.856,89.171,13.625
0.198,-1.058,0.788,-5.144,102.873,13.043
0.201,-1.056,0.785,-4.554,116.248,12.547
0.204,-1.054,0.780,-4.055,129.885,12.070
0.206,-1.052,0.774,-3.555,143.819,11.657
0.208,-1.050,0.766,-2.981,158.399,11.348
0.209,-1.048,0.755,-2.189,173.322,11.122
0.209,-1.044,0.743,-1.147,188.599,10.954
0.207,-1.039,0.729,0.082,203.962,10.760
0.204,-1.034,0.715,1.231,218.986,10.623
0.200,-1.027,0.697,2.479,233.949,10.340
0.194,-1.020,0.676,3.540,247.852,9.930
0.188,-1.011,0.653,4.376,261.159,9.379
0.180,-1.003,0.630,5.028,274.071,8.700
0.172,-0.996,0.599,5.471,286.000,8.060
0.162,-0.990,0.571,5.769,295.870,7.389
0.153,-0.985,0.542,5.938,304.484,6.529
0.145,-0.980,0.514,5.976,311.676,5.379
0.139,-0.974,0.487,5.951,318.493,3.780
0.133,-0.968,0.461,5.834,324.330,1.811
0.127,-0.962,0.437,5.519,328.305,-0.205
0.123,-0.956,0.412,5.094,329.383,-2.047
0.120,-0.950,0.390,4.614,328.250,-3.766
0.120,-0.943,0.368,4.099,326.181,-5.311
0.122,-0.936,0.344,3.582,321.553,-6.570
0.120,-0.928,0.318,3.018,314.523,-7.617
0.118,-0.920,0.291,2.479,306.140,-8.476
0.115,-0.913,0.262,2.088,297.309,-9.305
0.112,-0.909,0.232,1.886,288.832,-10.037
0.109,-0.906,0.200,1.892,281.117,-10.667
0.105,-0.905,0.169,2.090,274.205,-11.209
0.102,-0.903,0.138,2.473,268.071,-11.673
0.097,-0.902,0.107,2.964,262.128,-12.125
0.091,-0.901,0.079,3.543,255.905,-12.575
0.081,-0.897,0.054,3.989,247.996,-12.923
0.072,-0.895,0.030,4.307,240.144,-12.176
0.063,-0.900,0.010,5.836,233.777,-11.293
0.052,-0.898,-0.009,6.926,225.748,-10.108
0.040,-0.892,-0.024,7.528,217.530,-8.696
0.029,-0.890,-0.038,8.286,209.687,-7.801
0.017,-0.887,-0.050,8.908,201.461,-7.103
0.005,-0.884,-0.061,9.302,193.280,-6.570
-0.008,-0.881,-0.070,9.557,185.284,-6.111
-0.021,-0.880,-0.079,9.694,177.382,-5.728
