aX,aY,aZ,gX,gY,gZ
0.965,-0.417,1.149,-20.415,51.268,-1.284
0.836,-0.419,1.238,-18.717,50.078,-1.226
0.803,-0.387,1.282,-18.619,46.764,0.160
0.774,-0.393,1.301,-21.297,41.166,-1.412
0.751,-0.412,1.293,-23.730,35.891,-1.790
0.726,-0.447,1.267,-24.309,31.411,0.556
0.714,-0.465,1.230,-23.925,28.122,4.473
0.702,-0.466,1.190,-23.537,25.392,8.027
0.679,-0.464,1.154,-23.848,22.493,10.225
0.651,-0.466,1.122,-24.799,19.638,10.992
0.627,-0.473,1.097,-25.637,17.398,11.098
0.609,-0.483,1.079,-25.908,15.684,10.953
0.592,-0.495,1.066,-25.671,14.212,10.858
0.575,-0.505,1.055,-25.218,12.932,10.979
0.560,-0.513,1.042,-24.628,11.957,11.233
0.543,-0.521,1.028,-23.954,11.255,11.444
0.526,-0.529,1.012,-23.243,10.770,11.543
0.509,-0.538,0.998,-22.567,10.510,11.444
0.493,-0.545,0.984,-22.172,10.467,11.216
0.477,-0.552,0.971,-22.137,10.629,10.910
0.462,-0.560,0.958,-22.504,10.924,10.516
0.448,-0.566,0.946,-23.313,11.269,9.988
0.434,-0.573,0.932,-24.495,11.676,9.343
0.421,-0.580,0.919,-25.713,12.119,8.657
0.409,-0.588,0.906,-26.574,12.560,7.973
0.398,-0.597,0.894,-27.066,12.946,7.345
0.388,-0.605,0.884,-27.236,13.243,6.791
0.379,-0.613,0.874,-27.151,13.417,6.369
0.370,-0.621,0.866,-26.891,13.519,6.084
0.362,-0.628,0.858,-26.548,13.554,5.914
0.353,-0.635,0.850,-26.197,13.513,5.847
0.344,-0.640,0.842,-25.929,13.403,5.835
0.335,-0.646,0.834,-25.761,13.225,5.846
0.326,-0.651,0.826,-25.739,12.986,5.847
0.317,-0.656,0.818,-25.893,12.658,5.805
0.307,-0.660,0.809,-26.197,12.299,5.725
0.298,-0.665,0.800,-26.529,11.927,5.620
0.289,-0.671,0.791,-26.796,11.554,5.506
0.281,-0.676,0.782,-26.902,11.197,5.389
0.272,-0.682,0.774,-26.855,10.863,5.277
0.265,-0.688,0.767,-26.651,10.555,5.180
0.257,-0.694,0.760,-26.269,10.261,5.115
0.250,-0.700,0.754,-25.763,9.998,5.111
0.244,-0.706,0.747,-25.148,9.773,5.169
0.237,-0.712,0.741,-24.491,9.593,5.290
0.231,-0.717,0.735,-23.808,9.451,5.466
0.225,-0.723,0.728,-23.130,9.336,5.670
0.219,-0.728,0.722,-22.477,9.207,5.879
0.213,-0.732,0.716,-21.887,9.041,6.071
0.207,-0.736,0.710,-21.366,8.840,6.217
0.201,-0.740,0.704,-20.867,8.623,6.316
0.195,-0.744,0.698,-20.349,8.398,6.397
0.190,-0.748,0.693,-19.812,8.158,6.459
0.184,-0.752,0.689,-19.265,7.895,6.523
0.179,-0.755,0.684,-18.710,7.629,6.581
0.174,-0.759,0.680,-18.158,7.357,6.640
0.170,-0.762,0.675,-17.614,7.080,6.720
0.165,-0.766,0.671,-17.074,6.812,6.817
0.161,-0.770,0.666,-16.534,6.571,6.932
0.157,-0.773,0.660,-16.022,6.366,7.065
0.153,-0.776,0.655,-15.544,6.181,7.219
0.149,-0.779,0.649,-15.108,6.006,7.383
0.146,-0.782,0.644,-14.711,5.837,7.554
0.142,-0.785,0.640,-14.368,5.663,7.708
0.138,-0.787,0.635,-14.050,5.484,7.840
0.135,-0.790,0.631,-13.741,5.292,7.942
0.131,-0.792,0.627,-13.445,5.092,8.019
0.128,-0.794,0.624,-13.143,4.892,8.084
0.125,-0.796,0.620,-12.823,4.699,8.145
0.121,-0.798,0.616,-12.496,4.509,8.199
0.118,-0.800,0.613,-12.164,4.329,8.234
0.115,-0.801,0.609,-11.853,4.163,8.251
0.112,-0.803,0.605,-11.571,4.012,8.251
0.108,-0.805,0.601,-11.329,3.869,8.235
0.105,-0.806,0.598,-11.122,3.731,8.202
0.102,-0.808,0.595,-10.940,3.598,8.152
0.099,-0.809,0.592,-10.787,3.472,8.091
0.096,-0.811,0.589,-10.662,3.342,8.021
0.093,-0.812,0.587,-10.555,3.198,7.944
0.090,-0.813,0.584,-10.439,3.032,7.864
0.087,-0.815,0.582,-10.306,2.852,7.780
0.085,-0.816,0.580,-10.164,2.657,7.694
0.082,-0.818,0.579,-9.982,2.451,7.604
0.080,-0.819,0.577,-9.784,2.230,7.507
0.077,-0.821,0.575,-9.582,2.004,7.403
0.079,-0.823,0.572,-9.386,1.774,7.300
0.076,-0.825,0.570,-9.197,1.543,7.206
0.074,-0.827,0.568,-9.022,1.313,7.125
0.072,-0.829,0.566,-8.843,1.082,7.047
0.069,-0.830,0.565,-8.681,0.845,6.984
0.067,-0.832,0.563,-8.535,0.599,6.926
0.064,-0.833,0.562,-8.400,0.338,6.883
0.062,-0.833,0.561,-8.268,0.066,6.857
0.060,-0.834,0.560,-8.133,-0.213,6.848
0.058,-0.835,0.559,-7.984,-0.500,6.850
0.056,-0.835,0.558,-7.817,-0.802,6.854
0.054,-0.835,0.557,-7.629,-1.127,6.864
0.052,-0.835,0.556,-7.427,-1.498,6.870
0.051,-0.834,0.556,-7.234,-1.909,6.864
0.049,-0.834,0.556,-7.065,-2.382,6.860
0.048,-0.834,0.556,-6.932,-2.926,6.868
0.047,-0.834,0.556,-6.863,-3.542,6.883
0.046,-0.834,0.556,-6.861,-4.227,6.913
0.045,-0.834,0.556,-6.974,-4.982,6.978
0.044,-0.833,0.556,-7.174,-5.752,7.060
0.043,-0.832,0.556,-7.393,-6.546,7.151
0.042,-0.831,0.557,-7.581,-7.324,7.232
0.042,-0.829,0.558,-7.758,-8.071,7.326
0.042,-0.828,0.558,-7.872,-8.672,7.398
0.041,-0.827,0.558,-7.865,-9.133,7.391
0.040,-0.827,0.558,-7.650,-9.425,7.285
0.040,-0.825,0.557,-7.218,-9.532,7.114
0.039,-0.825,0.557,-6.686,-9.613,6.864
0.039,-0.826,0.556,-5.957,-9.639,6.531
0.039,-0.825,0.556,-5.226,-9.632,6.194
0.039,-0.824,0.556,-4.667,-9.652,5.854
0.038,-0.825,0.556,-4.321,-9.672,5.461
0.038,-0.826,0.557,-4.110,-9.681,5.017
0.039,-0.827,0.557,-3.970,-9.617,4.514

0.549,-1.047,-0.273,-2.131,-24.219,4.517
0.560,-1.050,-0.273,-0.237,-39.403,4.777
0.570,-1.053,-0.273,1.846,-55.114,5.411
0.581,-1.056,-0.271,4.356,-71.441,6.354
0.592,-1.060,-0.267,7.271,-88.163,7.647
0.603,-1.063,-0.263,10.589,-105.804,9.361
0.614,-1.065,-0.257,14.148,-123.372,11.496
0.625,-1.068,-0.252,18.002,-140.753,14.057
0.635,-1.070,-0.247,22.382,-157.843,17.187
0.647,-1.071,-0.241,26.750,-174.372,20.685
0.659,-1.073,-0.235,31.027,-190.447,24.552
0.672,-1.074,-0.227,35.210,-205.535,28.811
0.685,-1.074,-0.219,39.394,-219.565,33.674
0.698,-1.074,-0.209,43.938,-232.646,38.905
0.711,-1.072,-0.197,48.692,-244.886,44.454
0.724,-1.069,-0.183,53.592,-256.136,50.150
0.737,-1.065,-0.165,58.624,-265.936,55.900
0.749,-1.060,-0.146,63.670,-274.650,61.638
0.760,-1.054,-0.125,68.714,-282.713,67.389
0.769,-1.047,-0.102,73.568,-290.287,72.925
0.777,-1.038,-0.080,78.193,-297.414,78.163
0.783,-1.029,-0.064,82.536,-305.625,80.955
0.809,-1.036,-0.088,87.073,-275.865,80.595
1.181,-0.933,0.364,90.795,-89.337,92.081
1.094,-0.915,0.481,108.815,-72.528,86.352
0.948,-0.832,0.548,106.498,-69.012,87.155
0.904,-0.813,0.607,98.987,-70.340,86.901
0.870,-0.806,0.635,93.509,-80.627,85.164
0.848,-0.777,0.641,84.657,-90.220,83.598
0.831,-0.766,0.623,73.397,-95.488,81.800
0.817,-0.774,0.598,62.825,-97.234,79.737
0.811,-0.781,0.571,58.890,-97.791,77.819
0.803,-0.788,0.543,57.225,-97.794,76.370
0.792,-0.796,0.518,56.056,-97.533,75.416
0.779,-0.798,0.497,54.821,-96.777,74.469
0.762,-0.798,0.476,52.864,-95.580,73.212
0.742,-0.804,0.456,50.452,-94.158,71.545
0.725,-0.817,0.441,48.531,-92.503,69.763
0.712,-0.833,0.428,47.484,-90.609,68.054
0.701,-0.848,0.418,46.809,-87.662,66.476
0.691,-0.858,0.409,46.615,-83.685,65.023
0.676,-0.863,0.402,46.753,-78.756,63.628
0.659,-0.863,0.395,46.835,-73.460,62.224
0.643,-0.861,0.390,46.618,-67.809,60.764
0.629,-0.859,0.388,46.013,-61.885,59.275
0.618,-0.857,0.389,45.004,-56.024,57.802
0.607,-0.854,0.391,43.345,-50.533,56.316
0.597,-0.850,0.394,40.874,-45.622,54.742
0.586,-0.849,0.398,37.893,-41.505,53.130
0.578,-0.848,0.402,34.902,-37.976,51.595
0.570,-0.848,0.405,32.195,-34.988,50.210
0.562,-0.848,0.407,30.047,-32.479,48.976
0.556,-0.848,0.407,28.349,-30.368,47.800
0.549,-0.847,0.405,26.994,-28.588,46.676
0.542,-0.847,0.402,25.883,-27.231,45.584
0.535,-0.847,0.399,24.910,-26.162,44.502
0.529,-0.847,0.394,24.021,-25.351,43.420
0.523,-0.847,0.390,23.249,-24.762,42.305
0.517,-0.848,0.387,22.633,-24.352,41.152
0.511,-0.849,0.384,22.157,-24.067,40.019
0.507,-0.851,0.381,21.778,-23.871,38.911
0.502,-0.851,0.380,21.444,-23.779,37.834
0.497,-0.852,0.378,21.108,-23.722,36.861
0.492,-0.853,0.377,20.776,-23.675,36.000
0.486,-0.854,0.376,20.421,-23.609,35.226
0.481,-0.854,0.375,20.061,-23.528,34.532
0.475,-0.855,0.373,19.666,-23.415,33.904
0.470,-0.855,0.371,19.232,-23.228,33.302
0.464,-0.855,0.368,18.747,-22.990,32.697
0.459,-0.855,0.364,18.219,-22.713,32.059
0.454,-0.855,0.360,17.574,-22.381,31.360
0.449,-0.855,0.355,16.815,-22.002,30.631
0.445,-0.855,0.351,16.020,-21.586,29.888
0.441,-0.856,0.347,15.201,-21.090,29.163
0.437,-0.856,0.345,14.428,-20.706,28.042
0.433,-0.855,0.343,13.545,-20.207,27.224
0.430,-0.857,0.343,12.682,-19.673,26.576
0.427,-0.858,0.343,12.081,-19.238,25.869
0.423,-0.858,0.344,11.483,-18.858,25.244
0.419,-0.859,0.344,10.922,-18.555,24.603
0.415,-0.858,0.346,10.398,-18.349,23.940
0.411,-0.858,0.346,9.842,-18.198,23.304
0.408,-0.858,0.347,9.310,-18.069,22.663
0.405,-0.858,0.347,8.807,-17.969,21.985
0.401,-0.858,0.347,8.298,-17.904,21.305
0.399,-0.859,0.346,7.841,-17.847,20.495
0.396,-0.860,0.345,7.340,-17.793,19.659
0.394,-0.861,0.344,6.738,-17.715,18.825
0.392,-0.862,0.342,6.155,-17.592,18.060
0.391,-0.865,0.341,5.670,-17.405,17.470
0.390,-0.867,0.338,5.390,-17.098,16.978
0.389,-0.868,0.337,5.129,-16.674,16.615
0.388,-0.869,0.336,4.789,-16.230,16.328
0.386,-0.871,0.334,4.476,-15.811,16.089
0.385,-0.873,0.333,4.233,-15.421,15.865
0.384,-0.875,0.333,3.991,-15.077,15.640
0.382,-0.877,0.333,3.675,-14.817,15.411
0.380,-0.878,0.333,3.294,-14.642,15.160
0.378,-0.879,0.333,2.881,-14.528,14.869
0.376,-0.880,0.333,2.474,-14.465,14.518
0.373,-0.881,0.333,2.076,-14.430,14.066
0.371,-0.882,0.333,1.696,-14.404,13.499
0.369,-0.883,0.333,1.322,-14.363,12.817
0.367,-0.885,0.333,0.976,-14.294,12.023
0.365,-0.886,0.334,0.622,-14.175,11.221
0.363,-0.887,0.334,0.267,-14.012,10.448
0.362,-0.888,0.335,-0.165,-13.729,9.715
0.361,-0.889,0.336,-0.636,-13.351,9.023
0.360,-0.890,0.338,-1.138,-12.907,8.351
0.360,-0.891,0.339,-1.686,-12.420,7.666
0.359,-0.892,0.340,-2.256,-11.905,6.989
0.359,-0.893,0.341,-2.817,-11.405,6.311
0.358,-0.895,0.341,-3.313,-10.955,5.639
0.358,-0.897,0.340,-3.741,-10.581,5.006
0.357,-0.898,0.337,-4.072,-10.232,4.415
0.357,-0.899,0.335,-4.360,-9.862,3.849
0.357,-0.901,0.332,-4.619,-9.453,3.321
0.358,-0.902,0.330,-4.790,-9.086,2.863
0.358,-0.902,0.328,-4.833,-8.754,2.441

0.561,-1.174,0.169,-2.683,17.713,-2.102
0.792,-0.985,0.614,-4.074,147.236,-0.594
0.756,-0.929,0.675,-4.472,144.425,-4.077
0.698,-0.929,0.720,-1.450,140.203,-0.342
0.662,-0.933,0.750,-1.664,136.009,3.889
0.631,-0.937,0.766,-1.204,123.548,3.937
0.598,-0.927,0.756,-0.634,110.844,4.112
0.579,-0.938,0.734,-0.274,99.916,5.931
0.575,-0.942,0.709,0.283,91.297,8.389
0.566,-0.935,0.685,0.660,84.961,10.150
0.549,-0.930,0.667,0.707,78.795,11.106
0.530,-0.923,0.655,0.545,72.278,11.376
0.512,-0.910,0.645,-0.183,66.020,11.136
0.496,-0.902,0.637,-1.129,60.254,10.658
0.483,-0.901,0.630,-1.882,55.145,10.074
0.473,-0.903,0.618,-2.474,50.923,9.467
0.463,-0.906,0.608,-2.891,47.599,8.939
0.454,-0.912,0.596,-3.000,45.229,8.549
0.445,-0.917,0.583,-2.757,43.550,8.245
0.435,-0.918,0.569,-2.155,42.056,7.914
0.425,-0.916,0.557,-1.608,40.785,7.466
0.414,-0.913,0.546,-1.298,39.707,6.856
0.404,-0.910,0.538,-1.257,38.773,6.072
0.396,-0.906,0.532,-1.533,37.829,5.139
0.387,-0.903,0.527,-2.118,36.820,4.061
0.380,-0.902,0.524,-3.040,35.723,2.880
0.374,-0.901,0.522,-4.062,34.534,1.712
0.369,-0.902,0.519,-5.077,33.261,0.614
0.365,-0.903,0.516,-6.005,31.979,-0.368
0.362,-0.904,0.512,-6.827,30.719,-1.211
0.360,-0.906,0.507,-7.449,29.507,-1.861
0.358,-0.909,0.501,-7.850,28.369,-2.331
0.355,-0.911,0.494,-8.008,27.342,-2.618
0.353,-0.914,0.488,-7.974,26.417,-2.732
0.350,-0.916,0.482,-7.817,25.580,-2.675
0.346,-0.918,0.476,-7.567,24.796,-2.548
0.342,-0.918,0.472,-7.300,24.029,-2.388
0.337,-0.919,0.468,-7.048,23.256,-2.229
0.332,-0.919,0.465,-6.842,22.476,-2.086
0.326,-0.919,0.462,-6.694,21.680,-1.962
0.321,-0.919,0.460,-6.653,20.871,-1.882
0.315,-0.919,0.458,-6.692,20.047,-1.851
0.310,-0.919,0.456,-6.806,19.210,-1.895
0.304,-0.919,0.453,-6.989,18.398,-1.948
0.300,-0.918,0.450,-7.107,17.703,-1.873
0.296,-0.918,0.447,-7.222,16.918,-2.164
0.290,-0.917,0.443,-7.414,16.186,-2.351
0.287,-0.918,0.440,-7.650,15.614,-2.293
0.285,-0.919,0.436,-7.718,15.055,-2.269
0.281,-0.920,0.434,-7.703,14.485,-2.283
0.277,-0.921,0.431,-7.626,13.932,-2.288
0.274,-0.922,0.429,-7.487,13.379,-2.264
0.271,-0.923,0.428,-7.262,12.821,-2.275
0.268,-0.923,0.427,-7.066,12.279,-2.227
0.265,-0.924,0.426,-6.900,11.737,-2.164
0.263,-0.924,0.425,-6.754,11.178,-2.123
0.260,-0.924,0.424,-6.607,10.605,-2.086
0.258,-0.924,0.423,-6.441,10.036,-2.034
0.256,-0.925,0.421,-6.265,9.488,-1.949
0.254,-0.925,0.420,-6.077,8.976,-1.796
0.253,-0.925,0.418,-5.882,8.499,-1.602
0.251,-0.926,0.416,-5.687,8.049,-1.378
0.250,-0.926,0.415,-5.501,7.629,-1.138
0.249,-0.927,0.413,-5.315,7.218,-0.919
0.248,-0.928,0.412,-5.130,6.800,-0.730
0.246,-0.928,0.410,-4.948,6.367,-0.587
0.245,-0.928,0.409,-4.776,5.919,-0.472
0.244,-0.928,0.409,-4.612,5.458,-0.365
0.243,-0.928,0.408,-4.453,4.976,-0.277
0.243,-0.928,0.407,-4.301,4.479,-0.196
0.242,-0.927,0.406,-4.151,3.962,-0.129
0.241,-0.926,0.405,-4.010,3.429,-0.075
0.241,-0.926,0.404,-3.870,2.878,-0.041
0.241,-0.925,0.402,-3.726,2.320,-0.022
0.240,-0.924,0.401,-3.574,1.759,-0.022
0.240,-0.923,0.399,-3.416,1.204,-0.036
0.240,-0.923,0.398,-3.221,0.646,-0.053
0.239,-0.923,0.396,-2.977,0.055,-0.066
0.239,-0.922,0.395,-2.638,-0.514,-0.093
0.239,-0.921,0.394,-2.242,-1.075,-0.135
0.237,-0.919,0.393,-1.906,-1.671,-0.191
0.236,-0.918,0.393,-1.633,-2.307,-0.284
0.236,-0.917,0.394,-1.426,-2.996,-0.406
0.235,-0.916,0.395,-1.282,-3.716,-0.561
0.234,-0.911,0.395,-1.177,-4.429,-0.783
0.234,-0.910,0.396,-1.132,-5.172,-1.049
0.233,-0.909,0.397,-1.153,-5.922,-1.344
0.233,-0.909,0.397,-1.237,-6.599,-1.666
0.233,-0.909,0.396,-1.313,-7.213,-2.030
0.233,-0.909,0.396,-1.312,-7.748,-2.428
0.234,-0.910,0.395,-1.294,-8.116,-2.848
0.234,-0.911,0.393,-1.255,-8.381,-3.272
0.234,-0.911,0.392,-1.205,-8.583,-3.657
0.234,-0.912,0.391,-1.151,-8.745,-3.998
0.235,-0.913,0.390,-1.108,-8.888,-4.287
0.235,-0.913,0.390,-1.078,-9.019,-4.536
0.235,-0.914,0.389,-1.055,-9.115,-4.741
0.235,-0.914,0.388,-0.998,-9.231,-4.901
0.235,-0.914,0.388,-0.955,-9.325,-5.034
0.235,-0.914,0.386,-0.946,-9.384,-5.150
0.236,-0.913,0.385,-0.972,-9.392,-5.252
0.236,-0.913,0.385,-1.038,-9.317,-5.370
0.237,-0.912,0.385,-1.116,-9.170,-5.529
0.238,-0.912,0.386,-1.209,-8.929,-5.763
0.239,-0.913,0.387,-1.323,-8.620,-6.042
0.241,-0.913,0.389,-1.445,-8.275,-6.356
0.242,-0.914,0.391,-1.577,-7.839,-6.659
0.243,-0.914,0.393,-1.755,-7.397,-6.939
0.244,-0.914,0.395,-1.917,-7.029,-7.199
0.245,-0.914,0.397,-2.170,-6.561,-7.444
0.247,-0.914,0.398,-2.477,-5.970,-7.672
0.249,-0.914,0.398,-2.721,-5.314,-7.914
0.250,-0.914,0.397,-2.945,-4.553,-8.174
0.253,-0.914,0.395,-3.144,-3.639,-8.419
0.255,-0.915,0.393,-3.339,-2.593,-8.640
0.258,-0.914,0.392,-3.576,-1.372,-8.825
0.261,-0.912,0.391,-3.838,-0.000,-8.994
0.263,-0.909,0.392,-4.155,1.507,-9.175
0.264,-0.906,0.394,-4.523,2.980,-9.380

0.482,-0.952,0.890,26.314,99.665,-9.364
0.582,-0.771,1.035,34.635,97.067,-7.516
0.427,-0.720,1.047,35.579,68.747,-13.060
0.392,-0.706,1.047,30.030,58.800,-10.204
0.392,-0.716,1.031,26.068,51.724,-3.201
0.392,-0.706,1.018,23.186,47.683,-0.311
0.385,-0.687,1.000,19.167,44.143,1.546
0.370,-0.682,0.983,16.534,40.953,2.747
0.364,-0.678,0.960,14.725,37.328,3.349
0.359,-0.670,0.940,13.058,33.394,3.736
0.355,-0.670,0.923,11.702,29.440,4.407
0.352,-0.676,0.909,10.822,25.755,5.192
0.344,-0.680,0.896,9.716,22.468,5.933
0.338,-0.687,0.887,8.878,19.943,6.574
0.332,-0.692,0.883,8.371,17.753,6.936
0.324,-0.695,0.881,8.033,16.280,6.987
0.315,-0.698,0.880,7.658,14.842,6.879
0.307,-0.704,0.876,7.266,13.567,6.675
0.300,-0.712,0.869,7.013,12.597,6.509
0.294,-0.721,0.861,6.769,11.819,6.453
0.288,-0.727,0.852,6.427,11.171,6.430
0.281,-0.731,0.843,5.829,10.638,6.407
0.274,-0.733,0.835,5.057,10.147,6.327
0.268,-0.734,0.828,4.169,9.670,6.160
0.264,-0.735,0.821,3.249,9.165,5.876
0.259,-0.734,0.815,2.370,8.611,5.494
0.255,-0.733,0.808,1.560,8.034,5.073
0.251,-0.732,0.800,0.792,7.403,4.640
0.247,-0.733,0.793,0.181,6.735,4.178
0.245,-0.736,0.786,-0.242,6.106,3.703
0.244,-0.740,0.779,-0.599,5.479,3.249
0.242,-0.743,0.773,-0.880,4.842,2.782
0.241,-0.748,0.766,-1.062,4.205,2.309
0.240,-0.752,0.760,-1.170,3.615,1.977
0.240,-0.756,0.754,-1.244,3.100,1.872
0.240,-0.760,0.748,-1.293,2.666,1.957
0.239,-0.763,0.742,-1.334,2.290,2.160
0.237,-0.764,0.737,-1.428,1.953,2.403
0.235,-0.765,0.732,-1.599,1.624,2.648
0.232,-0.766,0.727,-1.857,1.302,2.866
0.230,-0.767,0.723,-2.190,0.976,3.039
0.227,-0.768,0.718,-2.601,0.652,3.156
0.224,-0.768,0.714,-3.100,0.336,3.217
0.222,-0.769,0.709,-3.661,0.044,3.219
0.220,-0.769,0.705,-4.232,-0.228,3.170
0.218,-0.770,0.700,-4.812,-0.475,3.071
0.217,-0.772,0.695,-5.361,-0.721,2.816
0.215,-0.773,0.689,-5.733,-0.877,2.454
0.214,-0.775,0.684,-6.086,-0.984,2.203
0.214,-0.777,0.679,-6.386,-1.022,2.091
0.213,-0.779,0.675,-6.616,-1.012,2.063
0.213,-0.781,0.671,-6.782,-0.917,2.165
0.212,-0.783,0.668,-6.862,-0.870,2.170
0.211,-0.784,0.665,-6.949,-0.815,2.224
0.210,-0.786,0.664,-6.948,-0.831,2.124
0.208,-0.786,0.662,-6.924,-0.952,1.928
0.206,-0.786,0.661,-6.912,-1.114,1.785
0.205,-0.788,0.660,-6.856,-1.310,1.702
0.205,-0.789,0.658,-6.762,-1.532,1.643
0.204,-0.790,0.657,-6.652,-1.789,1.564
0.204,-0.791,0.655,-6.529,-2.046,1.459
0.203,-0.792,0.653,-5.806,-2.291,1.344
0.203,-0.794,0.650,-5.609,-2.518,1.215
0.202,-0.795,0.648,-5.363,-2.718,1.102
0.202,-0.797,0.645,-5.084,-2.855,1.027
0.202,-0.798,0.642,-4.790,-2.947,0.984
0.202,-0.800,0.640,-4.481,-3.012,0.959
0.202,-0.801,0.639,-4.171,-3.075,0.958
0.202,-0.803,0.637,-3.852,-3.140,0.973
0.202,-0.804,0.636,-3.553,-3.233,0.989
0.202,-0.804,0.636,-3.272,-3.367,1.022
0.202,-0.805,0.635,-2.997,-3.585,1.072
0.202,-0.806,0.635,-2.687,-3.851,1.144
0.202,-0.806,0.636,-2.376,-4.148,1.251
0.202,-0.806,0.637,-2.050,-4.455,1.374
0.202,-0.807,0.637,-1.712,-4.776,1.505
0.201,-0.808,0.637,-1.387,-5.107,1.654
0.201,-0.808,0.637,-1.060,-5.446,1.805
0.200,-0.808,0.637,-0.753,-5.782,1.968
0.199,-0.808,0.636,-0.463,-6.095,2.138
0.198,-0.808,0.634,-0.167,-6.373,2.317
0.198,-0.808,0.632,0.153,-6.649,2.501
0.197,-0.808,0.630,0.596,-6.983,2.668
0.197,-0.809,0.628,1.354,-7.246,2.824
0.197,-0.809,0.626,2.234,-7.500,2.935
0.196,-0.810,0.625,3.233,-7.797,2.968
0.196,-0.812,0.624,4.522,-8.078,2.937
0.196,-0.815,0.623,5.914,-8.294,2.876
0.197,-0.816,0.623,7.377,-8.417,2.806
0.198,-0.817,0.622,8.850,-8.462,2.732
0.198,-0.817,0.622,10.214,-8.438,2.669
0.197,-0.817,0.622,11.375,-8.385,2.635
0.197,-0.816,0.622,12.309,-8.317,2.617
0.196,-0.814,0.622,13.016,-8.274,2.602
0.195,-0.812,0.622,13.487,-8.212,2.578
0.194,-0.810,0.622,13.813,-8.155,2.539
0.193,-0.808,0.622,14.014,-8.119,2.479
0.192,-0.806,0.623,14.130,-8.134,2.406
0.191,-0.804,0.624,14.167,-8.163,2.305
0.190,-0.802,0.625,14.076,-8.190,2.185
0.190,-0.800,0.625,13.905,-8.212,2.024
0.190,-0.800,0.625,13.744,-8.189,1.831
0.190,-0.801,0.625,13.652,-8.125,1.561
0.191,-0.802,0.625,13.601,-7.976,1.290
0.192,-0.802,0.626,13.604,-7.667,1.080
0.193,-0.801,0.626,13.682,-7.314,0.915
0.193,-0.801,0.627,13.829,-6.958,0.797
0.193,-0.799,0.628,14.021,-6.631,0.749
0.193,-0.797,0.630,14.187,-6.324,0.724
0.193,-0.795,0.632,14.262,-5.983,0.700
0.193,-0.793,0.634,14.281,-5.615,0.684
0.193,-0.791,0.636,14.281,-5.269,0.664
0.194,-0.789,0.638,14.182,-4.881,0.636
0.195,-0.787,0.640,14.045,-4.330,0.627
0.198,-0.787,0.643,13.966,-3.691,0.509
0.199,-0.786,0.647,13.931,-2.988,0.324
0.201,-0.784,0.652,13.927,-2.266,0.110
0.206,-0.782,0.657,13.931,-1.483,-0.108
0.207,-0.780,0.662,13.909,-0.657,-0.315

0.252,-0.790,0.818,16.347,4.504,-0.832
0.252,-0.789,0.824,19.023,10.026,-1.305
0.251,-0.787,0.829,21.598,15.656,-1.701
0.249,-0.784,0.835,23.815,21.248,-2.021
0.247,-0.781,0.840,25.481,26.628,-2.273
0.244,-0.777,0.844,26.573,31.702,-2.489
0.241,-0.773,0.848,27.216,36.423,-2.706
0.238,-0.769,0.852,27.615,40.799,-2.949
0.235,-0.768,0.855,27.908,45.000,-3.230
0.233,-0.768,0.857,28.247,49.187,-3.523
0.231,-0.769,0.859,28.698,53.528,-3.839
0.229,-0.770,0.860,29.295,58.325,-4.217
0.226,-0.771,0.860,30.043,63.320,-4.628
0.223,-0.771,0.861,30.965,68.462,-5.057
0.219,-0.771,0.861,31.987,73.658,-5.468
0.215,-0.770,0.862,33.066,78.740,-5.803
0.210,-0.768,0.864,34.051,83.550,-6.072
0.205,-0.767,0.865,34.941,88.106,-6.262
0.201,-0.766,0.866,35.702,92.439,-6.404
0.197,-0.765,0.866,36.349,96.574,-6.499
0.192,-0.763,0.865,36.908,100.443,-6.561
0.187,-0.761,0.864,37.461,104.029,-6.619
0.181,-0.758,0.862,38.034,107.438,-6.712
0.175,-0.756,0.858,38.590,110.712,-6.821
0.170,-0.754,0.854,39.108,113.928,-6.934
0.164,-0.752,0.849,39.584,117.236,-7.014
0.157,-0.749,0.842,40.035,120.757,-7.087
0.150,-0.745,0.835,40.421,124.203,-7.155
0.142,-0.742,0.827,40.753,127.452,-7.220
0.134,-0.737,0.819,40.969,130.419,-7.296
0.124,-0.732,0.812,41.020,132.999,-7.403
0.114,-0.726,0.803,40.964,135.094,-7.559
0.104,-0.721,0.795,40.830,136.656,-7.785
0.093,-0.716,0.786,40.630,137.601,-8.077
0.083,-0.711,0.776,40.421,138.135,-8.426
0.073,-0.707,0.765,40.245,138.323,-8.852
0.063,-0.704,0.754,40.150,138.293,-9.352
0.053,-0.700,0.741,40.116,138.114,-9.878
0.043,-0.695,0.728,40.124,137.814,-10.439
0.032,-0.690,0.714,40.111,137.309,-11.034
0.021,-0.684,0.700,40.004,136.603,-11.655
0.009,-0.678,0.686,39.765,135.657,-12.308
-0.003,-0.672,0.672,39.355,134.405,-12.984
-0.014,-0.666,0.658,38.703,132.853,-13.685
-0.026,-0.661,0.643,37.939,131.030,-14.408
-0.037,-0.656,0.627,37.048,128.954,-15.134
-0.049,-0.650,0.610,36.144,126.695,-15.901
-0.060,-0.647,0.592,35.348,124.271,-16.788
-0.070,-0.644,0.575,34.632,121.706,-17.745
-0.081,-0.641,0.558,34.000,118.982,-18.710
-0.091,-0.638,0.541,33.412,116.110,-19.706
-0.101,-0.635,0.524,32.882,113.059,-20.758
-0.110,-0.634,0.509,32.370,109.847,-21.819
-0.118,-0.633,0.496,31.846,106.661,-22.934
-0.124,-0.633,0.484,31.298,103.568,-24.117
-0.130,-0.635,0.475,30.698,100.631,-25.339
-0.136,-0.636,0.467,29.976,96.930,-26.495
-0.142,-0.637,0.460,29.008,92.095,-27.551
-0.147,-0.639,0.454,27.729,85.292,-28.410
-0.152,-0.641,0.449,26.047,76.914,-29.077
-0.155,-0.643,0.442,23.905,66.940,-29.553
-0.158,-0.645,0.435,20.967,55.432,-29.789
-0.161,-0.648,0.427,17.412,42.740,-29.884
-0.162,-0.651,0.414,13.208,28.207,-29.851
-0.162,-0.654,0.403,8.572,12.743,-29.742
-0.161,-0.660,0.394,3.875,-3.578,-29.579
-0.158,-0.668,0.388,-0.696,-20.663,-29.338
-0.153,-0.677,0.383,-4.844,-38.129,-28.978
-0.145,-0.686,0.381,-8.474,-56.822,-28.517
-0.138,-0.697,0.383,-11.647,-75.977,-27.966
-0.129,-0.706,0.384,-14.467,-95.415,-27.148
-0.120,-0.713,0.386,-17.099,-115.031,-25.916
-0.111,-0.718,0.387,-19.666,-135.696,-24.189
-0.103,-0.721,0.387,-22.370,-156.749,-21.938
-0.094,-0.723,0.387,-25.618,-178.139,-19.059
-0.086,-0.724,0.387,-29.405,-199.887,-16.023
-0.077,-0.726,0.384,-33.619,-222.146,-13.116
-0.067,-0.730,0.379,-37.970,-242.847,-10.423
-0.055,-0.735,0.374,-42.105,-261.765,-8.258
-0.042,-0.745,0.372,-45.372,-279.763,-6.620
-0.025,-0.755,0.374,-47.730,-296.058,-5.099
-0.005,-0.762,0.376,-48.095,-310.874,-3.478
0.014,-0.768,0.380,-47.846,-324.901,-1.896
0.034,-0.789,0.383,-46.515,-336.876,-5.431
0.069,-0.805,0.534,-39.040,-149.078,-17.634
0.350,-0.607,0.795,-66.120,-76.088,-11.576
0.220,-0.710,0.868,-64.392,-63.037,-20.136
0.177,-0.660,0.954,-64.277,-59.267,-18.243
0.167,-0.676,1.004,-63.876,-59.418,-17.296
0.167,-0.693,1.033,-62.338,-61.598,-16.096
0.166,-0.707,1.040,-61.247,-64.753,-13.370
0.170,-0.717,1.030,-60.550,-66.825,-10.804
0.176,-0.724,1.011,-59.511,-68.076,-8.746
0.172,-0.735,0.987,-58.182,-69.614,-7.214
0.167,-0.748,0.964,-56.699,-71.172,-6.090
0.165,-0.756,0.941,-55.261,-72.371,-5.453
0.164,-0.757,0.919,-53.967,-72.964,-5.038
0.163,-0.756,0.901,-52.744,-72.924,-4.813
0.164,-0.753,0.887,-51.512,-72.249,-4.780
0.164,-0.749,0.876,-50.318,-71.293,-4.925
0.163,-0.744,0.867,-49.221,-70.151,-5.266
0.163,-0.741,0.858,-48.159,-68.897,-5.693
0.163,-0.740,0.850,-47.104,-67.435,-6.093
0.164,-0.739,0.842,-46.081,-65.701,-6.389
0.165,-0.738,0.834,-45.050,-63.756,-6.594
0.166,-0.740,0.826,-43.962,-61.608,-6.708
0.168,-0.743,0.819,-42.826,-59.303,-6.749
0.170,-0.746,0.812,-41.659,-56.875,-6.745
0.173,-0.750,0.805,-40.406,-54.468,-6.717
0.176,-0.754,0.800,-39.125,-52.173,-6.671
0.179,-0.758,0.795,-37.942,-50.044,-6.612
0.183,-0.762,0.789,-36.883,-48.084,-6.534
0.186,-0.766,0.784,-35.904,-46.308,-6.420
0.190,-0.770,0.778,-35.000,-44.673,-6.274
0.192,-0.774,0.772,-34.174,-43.162,-6.083
0.195,-0.776,0.765,-33.436,-41.767,-5.891
0.196,-0.779,0.759,-32.741,-40.469,-5.710
0.197,-0.780,0.752,-32.039,-39.259,-5.552
0.198,-0.781,0.745,-31.318,-38.131,-5.430

0.887,-0.917,0.769,-36.208,67.198,-6.475
0.875,-0.718,0.854,-51.362,67.904,4.287
0.751,-0.785,0.880,-43.269,61.838,3.401
0.712,-0.758,0.901,-46.206,54.418,4.366
0.689,-0.751,0.895,-48.988,42.955,3.863
0.676,-0.751,0.867,-49.936,33.460,3.696
0.660,-0.772,0.822,-49.284,28.571,4.336
0.656,-0.795,0.786,-47.150,25.110,5.287
0.654,-0.805,0.758,-43.495,21.413,6.152
0.644,-0.805,0.738,-40.711,17.687,6.831
0.629,-0.807,0.728,-38.475,14.353,6.732
0.612,-0.809,0.724,-36.584,11.707,6.246
0.600,-0.809,0.723,-35.196,9.787,5.795
0.590,-0.812,0.721,-34.094,8.431,5.356
0.579,-0.818,0.716,-33.102,7.250,4.784
0.567,-0.824,0.708,-32.225,6.310,4.278
0.555,-0.831,0.698,-31.444,5.670,4.046
0.545,-0.837,0.686,-30.659,5.182,3.826
0.534,-0.840,0.675,-29.937,4.793,3.554
0.523,-0.839,0.664,-29.393,4.516,3.211
0.511,-0.836,0.655,-29.060,4.340,2.766
0.501,-0.832,0.648,-28.892,4.257,2.168
0.492,-0.829,0.640,-28.856,4.239,1.439
0.485,-0.827,0.633,-28.933,4.270,0.602
0.478,-0.828,0.626,-28.957,4.346,-0.229
0.474,-0.831,0.618,-28.818,4.466,-0.996
0.471,-0.835,0.609,-28.512,4.685,-1.627
0.469,-0.840,0.601,-28.083,4.949,-2.092
0.467,-0.845,0.594,-27.601,5.243,-2.308
0.465,-0.849,0.588,-27.040,5.547,-2.362
0.463,-0.852,0.581,-26.433,5.836,-2.303
0.461,-0.855,0.576,-25.792,6.073,-2.152
0.457,-0.856,0.570,-25.146,6.248,-1.941
0.453,-0.857,0.566,-24.505,6.339,-1.685
0.448,-0.857,0.561,-23.904,6.329,-1.438
0.443,-0.857,0.557,-23.356,6.230,-1.223
0.438,-0.857,0.552,-22.865,6.080,-1.042
0.433,-0.858,0.546,-22.433,5.863,-0.894
0.428,-0.859,0.541,-22.017,5.600,-0.784
0.423,-0.859,0.537,-21.611,5.290,-0.710
0.417,-0.859,0.533,-21.217,4.946,-0.671
0.412,-0.859,0.530,-20.842,4.581,-0.652
0.407,-0.859,0.527,-20.481,4.212,-0.646
0.403,-0.859,0.523,-20.133,3.852,-0.632
0.399,-0.859,0.519,-19.783,3.528,-0.586
0.395,-0.859,0.516,-19.394,3.228,-0.538
0.392,-0.859,0.512,-18.972,2.969,-0.429
0.389,-0.860,0.509,-18.497,2.785,-0.222
0.385,-0.860,0.506,-17.993,2.490,-0.316
0.380,-0.857,0.503,-17.576,2.209,-0.416
0.377,-0.857,0.500,-17.277,2.034,-0.305
0.375,-0.859,0.498,-16.840,1.843,-0.318
0.372,-0.859,0.495,-16.389,1.550,-0.523
0.368,-0.859,0.492,-15.975,1.266,-0.711
0.367,-0.860,0.490,-15.547,1.058,-0.764
0.366,-0.862,0.488,-15.030,0.890,-0.760
0.364,-0.863,0.486,-14.488,0.741,-0.734
0.362,-0.864,0.485,-14.019,0.613,-0.689
0.360,-0.865,0.483,-13.581,0.504,-0.621
0.359,-0.866,0.481,-13.179,0.397,-0.542
0.358,-0.867,0.479,-12.812,0.302,-0.453
0.356,-0.867,0.477,-12.508,0.210,-0.366
0.355,-0.867,0.476,-12.287,0.088,-0.309
0.353,-0.868,0.474,-12.108,-0.059,-0.288
0.352,-0.869,0.471,-11.952,-0.219,-0.282
0.351,-0.870,0.469,-11.778,-0.367,-0.266
0.350,-0.872,0.466,-11.556,-0.493,-0.223
0.349,-0.874,0.464,-11.260,-0.594,-0.144
0.348,-0.875,0.462,-10.917,-0.676,-0.048
0.347,-0.877,0.460,-10.532,-0.745,0.081
0.345,-0.878,0.458,-10.118,-0.814,0.222
0.344,-0.878,0.457,-9.706,-0.881,0.378
0.342,-0.878,0.456,-9.327,-0.967,0.521
0.340,-0.877,0.455,-8.998,-1.083,0.633
0.338,-0.876,0.454,-8.734,-1.244,0.725
0.336,-0.875,0.453,-8.525,-1.440,0.801
0.334,-0.875,0.453,-8.369,-1.672,0.870
0.332,-0.874,0.453,-8.284,-1.935,0.950
0.330,-0.873,0.453,-8.240,-2.230,1.036
0.328,-0.873,0.453,-8.221,-2.542,1.123
0.327,-0.873,0.452,-8.190,-2.876,1.199
0.326,-0.873,0.452,-8.148,-3.211,1.270
0.325,-0.874,0.451,-8.089,-3.544,1.337
0.324,-0.875,0.450,-7.993,-3.865,1.393
0.324,-0.876,0.448,-7.902,-4.177,1.462
0.323,-0.876,0.447,-7.804,-4.480,1.553
0.323,-0.876,0.445,-7.709,-4.782,1.650
0.322,-0.876,0.444,-7.633,-5.086,1.749
0.322,-0.875,0.443,-7.627,-5.373,1.854
0.322,-0.874,0.441,-7.641,-5.645,1.947
0.321,-0.873,0.440,-7.647,-5.924,2.029
0.320,-0.872,0.440,-7.619,-6.234,2.090
0.320,-0.872,0.440,-7.580,-6.491,2.113
0.319,-0.872,0.440,-7.512,-6.743,2.096
0.319,-0.872,0.440,-7.406,-6.982,2.101
0.319,-0.872,0.440,-7.262,-7.196,2.049
0.319,-0.873,0.439,-6.919,-7.314,1.928
0.319,-0.873,0.438,-6.488,-7.269,1.821
0.319,-0.873,0.437,-6.087,-7.125,1.742
0.319,-0.874,0.436,-5.688,-6.893,1.652
0.320,-0.876,0.434,-5.220,-6.513,1.569
0.322,-0.876,0.433,-4.766,-5.919,1.522
0.323,-0.877,0.431,-4.374,-5.178,1.450
0.324,-0.878,0.432,-4.127,-4.232,1.399
0.326,-0.877,0.433,-4.028,-3.097,1.317
0.326,-0.876,0.435,-4.052,-1.919,1.134
0.326,-0.874,0.438,-4.154,-0.692,0.885
0.325,-0.873,0.441,-4.276,0.582,0.573
0.325,-0.872,0.445,-4.382,1.912,0.204
0.325,-0.871,0.448,-4.489,3.210,-0.215
0.325,-0.870,0.451,-4.624,4.457,-0.663
0.325,-0.869,0.453,-4.891,5.741,-1.104
0.325,-0.868,0.454,-5.225,7.089,-1.539
0.325,-0.868,0.455,-5.568,8.519,-1.985
0.326,-0.868,0.455,-5.866,10.123,-2.437
0.326,-0.869,0.456,-6.102,11.756,-2.881
0.326,-0.870,0.456,-6.290,13.409,-3.313
0.326,-0.872,0.455,-6.448,15.101,-3.712
0.326,-0.873,0.456,-6.519,16.920,-4.082

0.643,-0.942,0.706,-5.358,134.111,-4.441
0.693,-0.832,0.848,-6.275,134.020,-3.182
0.571,-0.859,0.865,-2.392,128.823,-3.106
0.549,-0.837,0.876,-4.562,122.379,-0.502
0.533,-0.830,0.867,-9.964,111.254,-0.174
0.518,-0.821,0.834,-13.737,99.832,-0.114
0.502,-0.825,0.791,-16.189,90.943,0.561
0.499,-0.833,0.756,-16.498,83.206,1.153
0.495,-0.834,0.732,-16.066,75.955,1.605
0.490,-0.830,0.718,-15.538,69.921,1.845
0.481,-0.829,0.712,-14.790,64.652,1.731
0.471,-0.826,0.709,-14.276,60.055,1.505
0.462,-0.827,0.706,-14.099,55.944,1.290
0.452,-0.834,0.699,-14.108,52.220,0.986
0.444,-0.845,0.689,-14.065,49.308,0.601
0.436,-0.855,0.674,-13.849,47.271,0.339
0.429,-0.865,0.657,-13.388,45.731,0.222
0.420,-0.871,0.643,-12.711,44.374,0.072
0.411,-0.869,0.631,-12.144,43.149,-0.300
0.401,-0.866,0.622,-11.900,41.990,-0.822
0.392,-0.864,0.615,-12.012,40.824,-1.421
0.385,-0.862,0.610,-12.381,39.630,-2.047
0.380,-0.862,0.605,-12.894,38.445,-2.655
0.375,-0.863,0.598,-13.395,37.296,-3.207
0.371,-0.865,0.590,-13.718,36.201,-3.668
0.370,-0.869,0.582,-13.897,35.156,-4.011
0.368,-0.873,0.574,-13.934,34.154,-4.233
0.368,-0.877,0.567,-13.864,33.183,-4.321
0.368,-0.882,0.559,-13.692,32.254,-4.262
0.368,-0.886,0.552,-13.369,31.375,-4.026
0.367,-0.890,0.545,-12.973,30.529,-3.687
0.365,-0.893,0.538,-12.539,29.691,-3.278
0.362,-0.895,0.533,-12.118,28.849,-2.843
0.358,-0.896,0.528,-11.745,27.989,-2.406
0.355,-0.897,0.523,-11.427,27.099,-2.016
0.350,-0.897,0.518,-11.181,26.193,-1.655
0.346,-0.897,0.513,-10.972,25.280,-1.339
0.342,-0.896,0.508,-10.781,24.360,-1.071
0.338,-0.896,0.503,-10.604,23.457,-0.852
0.333,-0.896,0.498,-10.424,22.574,-0.689
0.330,-0.895,0.493,-10.244,21.713,-0.571
0.326,-0.895,0.488,-10.052,20.880,-0.480
0.323,-0.895,0.484,-9.865,20.075,-0.398
0.320,-0.895,0.479,-9.671,19.300,-0.323
0.318,-0.895,0.476,-9.466,18.555,-0.243
0.315,-0.894,0.472,-9.264,17.843,-0.149
0.313,-0.894,0.469,-9.064,17.151,-0.017
0.312,-0.894,0.466,-8.842,16.484,0.158
0.310,-0.895,0.463,-8.610,15.848,0.289
0.307,-0.894,0.461,-8.363,15.125,0.171
0.305,-0.892,0.458,-8.291,14.459,0.239
0.304,-0.893,0.455,-8.158,13.828,0.360
0.304,-0.894,0.453,-7.950,13.155,0.346
0.301,-0.893,0.450,-7.746,12.456,0.183
0.300,-0.893,0.448,-7.545,11.807,0.133
0.300,-0.894,0.446,-7.293,11.210,0.170
0.300,-0.895,0.444,-7.022,10.632,0.228
0.300,-0.896,0.441,-6.800,10.064,0.296
0.299,-0.897,0.439,-6.621,9.511,0.392
0.299,-0.898,0.436,-6.455,8.971,0.513
0.299,-0.899,0.434,-6.317,8.446,0.659
0.299,-0.901,0.432,-6.224,7.928,0.821
0.298,-0.901,0.430,-6.196,7.403,0.973
0.297,-0.902,0.428,-6.214,6.860,1.100
0.297,-0.902,0.426,-6.276,6.313,1.227
0.296,-0.903,0.425,-6.357,5.749,1.382
0.295,-0.903,0.424,-6.444,5.163,1.585
0.294,-0.903,0.424,-6.484,4.563,1.834
0.293,-0.903,0.423,-6.475,3.964,2.116
0.292,-0.903,0.423,-6.406,3.372,2.417
0.290,-0.904,0.422,-6.283,2.772,2.721
0.289,-0.904,0.421,-6.125,2.209,3.016
0.288,-0.904,0.419,-5.941,1.677,3.297
0.287,-0.905,0.417,-5.745,1.164,3.545
0.286,-0.905,0.415,-5.570,0.685,3.760
0.285,-0.904,0.412,-5.406,0.203,3.914
0.284,-0.904,0.409,-5.200,-0.257,4.018
0.284,-0.904,0.407,-4.981,-0.719,4.095
0.283,-0.905,0.405,-4.740,-1.182,4.132
0.283,-0.905,0.402,-4.439,-1.593,4.121
0.283,-0.904,0.401,-4.062,-1.974,4.097
0.282,-0.905,0.400,-3.659,-2.336,4.023
0.282,-0.905,0.400,-3.208,-2.672,3.932
0.282,-0.905,0.400,-2.802,-2.974,3.836
0.282,-0.904,0.401,-2.449,-3.250,3.720
0.282,-0.904,0.401,-2.178,-3.495,3.559
0.281,-0.903,0.401,-1.933,-3.731,3.333
0.281,-0.903,0.401,-1.681,-3.950,3.049
0.281,-0.903,0.399,-1.441,-4.083,2.752
0.281,-0.903,0.397,-1.232,-4.178,2.451
0.281,-0.903,0.395,-1.058,-4.220,2.137
0.280,-0.903,0.393,-0.942,-4.244,1.815
0.280,-0.903,0.391,-0.879,-4.260,1.503
0.280,-0.904,0.389,-0.840,-4.285,1.191
0.280,-0.904,0.388,-0.827,-4.294,0.881
0.281,-0.904,0.387,-0.869,-4.283,0.586
0.281,-0.905,0.386,-0.945,-4.240,0.294
0.282,-0.906,0.386,-1.022,-4.171,-0.004
0.283,-0.907,0.386,-1.051,-4.054,-0.300
0.283,-0.908,0.387,-1.020,-3.886,-0.581
0.284,-0.909,0.388,-0.962,-3.688,-0.825
0.284,-0.909,0.389,-0.898,-3.483,-1.037
0.284,-0.908,0.390,-0.811,-3.261,-1.228
0.284,-0.908,0.391,-0.726,-3.018,-1.411
0.284,-0.907,0.390,-0.640,-2.689,-1.596
0.285,-0.906,0.388,-0.537,-2.284,-1.778
0.285,-0.905,0.387,-0.428,-1.793,-1.940
0.286,-0.904,0.385,-0.313,-1.202,-2.106
0.287,-0.903,0.384,-0.186,-0.506,-2.281
0.287,-0.902,0.383,-0.052,0.320,-2.461
0.288,-0.901,0.384,0.068,1.210,-2.648
0.288,-0.900,0.386,0.134,2.124,-2.846
0.289,-0.898,0.388,0.076,3.015,-3.067
0.288,-0.897,0.391,-0.110,3.838,-3.312
0.288,-0.895,0.394,-0.426,4.596,-3.590
0.288,-0.894,0.397,-0.858,5.353,-3.903
0.288,-0.893,0.399,-1.341,6.136,-4.263
0.289,-0.892,0.400,-1.837,6.980,-4.685
0.289,-0.892,0.401,-2.334,7.899,-5.158

0.373,-0.877,0.609,-3.025,17.302,-6.583
0.375,-0.876,0.613,-3.655,27.211,-7.998
0.378,-0.877,0.615,-4.235,37.337,-9.403
0.380,-0.877,0.617,-4.827,47.734,-10.760
0.383,-0.877,0.617,-5.471,58.467,-12.067
0.385,-0.877,0.615,-6.159,69.536,-13.378
0.388,-0.878,0.612,-6.914,80.880,-14.755
0.391,-0.878,0.606,-7.812,92.936,-16.130
0.394,-0.880,0.599,-8.854,105.267,-17.498
0.396,-0.881,0.592,-9.860,117.930,-18.903
0.398,-0.884,0.584,-10.524,130.930,-20.413
0.399,-0.887,0.576,-10.915,144.285,-21.914
0.400,-0.891,0.569,-11.054,157.849,-23.437
0.399,-0.894,0.562,-11.034,171.459,-25.021
0.399,-0.897,0.555,-10.899,184.040,-26.628
0.398,-0.899,0.547,-10.763,195.085,-28.077
0.397,-0.900,0.538,-10.619,204.058,-29.348
0.396,-0.902,0.527,-10.461,210.937,-30.424
0.395,-0.904,0.512,-10.287,215.614,-31.301
0.394,-0.906,0.494,-10.076,218.798,-31.956
0.392,-0.909,0.473,-9.774,220.774,-32.421
0.390,-0.912,0.449,-9.239,221.917,-32.722
0.388,-0.916,0.422,-8.395,222.731,-32.943
0.385,-0.919,0.394,-7.210,222.539,-33.081
0.379,-0.922,0.367,-5.747,220.475,-33.124
0.373,-0.925,0.340,-4.247,216.855,-33.035
0.366,-0.927,0.313,-2.937,211.874,-32.720
0.360,-0.931,0.287,-1.839,205.899,-32.273
0.355,-0.934,0.262,-0.818,199.427,-31.715
0.351,-0.939,0.235,-0.027,193.009,-31.037
0.349,-0.943,0.208,0.708,187.167,-30.260
0.346,-0.949,0.181,1.428,182.122,-29.305
0.345,-0.954,0.154,2.081,175.631,-28.186
0.345,-0.959,0.128,2.590,167.603,-26.891
0.345,-0.962,0.104,3.010,158.264,-25.495
0.345,-0.965,0.084,3.321,147.669,-24.049
0.345,-0.968,0.067,3.515,133.593,-22.546
0.345,-0.969,0.052,3.632,119.933,-21.004
0.345,-0.971,0.039,3.651,104.966,-19.386
0.346,-0.973,0.027,3.611,88.870,-17.697
0.347,-0.974,0.015,3.450,71.916,-15.924
0.349,-0.976,0.004,3.168,54.488,-14.165
0.351,-0.979,-0.007,2.775,36.819,-12.414
0.355,-0.982,-0.016,2.286,18.454,-10.652
0.360,-0.985,-0.021,1.752,-0.089,-8.894
0.365,-0.988,-0.025,1.227,-18.889,-7.109
0.371,-0.990,-0.027,0.665,-37.814,-5.252
0.377,-0.992,-0.028,0.095,-56.650,-3.299
0.384,-0.995,-0.028,-0.457,-75.582,-1.212
0.392,-0.997,-0.026,-0.959,-93.773,1.032
0.401,-0.999,-0.023,-1.401,-111.209,3.572
0.410,-1.001,-0.019,-1.792,-127.997,6.446
0.419,-1.003,-0.014,-2.174,-144.459,9.734
0.428,-1.004,-0.006,-2.562,-161.588,13.470
0.438,-1.005,0.003,-2.867,-178.832,17.587
0.447,-1.008,0.012,-3.017,-195.963,22.182
0.456,-1.011,0.020,-2.873,-212.282,27.019
0.466,-1.014,0.028,-2.379,-227.204,32.111
0.478,-1.018,0.037,-1.396,-240.521,37.436
0.490,-1.020,0.047,0.182,-252.417,42.953
0.504,-1.021,0.057,2.512,-263.296,48.625
0.517,-1.022,0.069,5.490,-273.473,54.708
0.530,-1.020,0.083,8.940,-283.288,60.872
0.542,-1.018,0.099,12.411,-292.753,67.036
0.555,-1.015,0.116,15.743,-301.900,72.909
0.567,-1.011,0.134,19.092,-311.488,78.109
0.578,-1.007,0.154,22.443,-320.930,82.759
0.587,-1.003,0.173,26.065,-329.741,86.604
0.595,-0.998,0.189,29.926,-332.527,79.903
0.611,-1.005,0.358,42.360,-45.543,57.566
0.865,-0.774,0.642,36.168,10.488,56.760
0.703,-0.824,0.716,44.288,11.463,54.835
0.630,-0.801,0.773,45.687,10.838,60.153
0.601,-0.787,0.802,43.813,1.806,61.345
0.590,-0.759,0.804,38.353,-9.957,60.457
0.579,-0.736,0.775,30.051,-16.846,59.144
0.567,-0.741,0.736,21.932,-21.153,57.869
0.558,-0.749,0.696,18.378,-24.921,56.688
0.550,-0.755,0.658,16.831,-28.090,55.618
0.544,-0.762,0.625,16.184,-30.633,54.514
0.535,-0.763,0.599,15.798,-32.249,53.292
0.524,-0.761,0.581,15.381,-32.704,51.935
0.513,-0.763,0.569,14.915,-32.497,49.991
0.503,-0.770,0.565,14.587,-32.007,47.730
0.493,-0.777,0.566,14.342,-31.294,45.680
0.482,-0.785,0.566,14.089,-30.382,43.893
0.470,-0.792,0.564,13.814,-29.242,42.289
0.457,-0.797,0.561,13.462,-27.909,40.776
0.445,-0.801,0.556,12.958,-26.603,39.291
0.434,-0.802,0.551,12.220,-25.407,37.771
0.424,-0.803,0.544,11.179,-24.327,36.148
0.416,-0.804,0.538,9.569,-23.430,34.463
0.408,-0.805,0.532,7.548,-22.660,32.750
0.402,-0.809,0.525,5.370,-21.955,31.089
0.398,-0.814,0.518,3.404,-21.253,29.562
0.394,-0.821,0.510,1.866,-20.535,28.188
0.391,-0.827,0.503,0.684,-19.815,26.935
0.388,-0.833,0.496,-0.097,-19.100,25.808
0.384,-0.839,0.490,-0.632,-18.401,24.790
0.380,-0.843,0.483,-0.970,-17.733,23.858
0.376,-0.847,0.478,-1.173,-17.140,22.990
0.371,-0.849,0.473,-1.291,-16.658,22.155
0.365,-0.852,0.470,-1.386,-16.301,21.319
0.360,-0.853,0.466,-1.503,-16.081,20.480
0.354,-0.855,0.464,-1.649,-15.979,19.650
0.349,-0.857,0.461,-1.790,-15.986,18.825
0.344,-0.860,0.459,-1.900,-16.103,17.993
0.340,-0.862,0.456,-1.960,-16.292,17.147
0.336,-0.864,0.454,-1.981,-16.538,16.296
0.332,-0.867,0.451,-1.955,-16.812,15.368
0.329,-0.868,0.448,-1.924,-17.116,14.311
0.327,-0.869,0.445,-1.932,-17.439,13.205
0.324,-0.871,0.441,-1.994,-17.700,12.197
0.323,-0.873,0.437,-2.063,-17.851,11.430
0.322,-0.876,0.433,-2.095,-17.884,11.000
0.321,-0.878,0.429,-2.028,-17.821,10.788
0.319,-0.880,0.425,-1.908,-17.673,10.674
0.318,-0.881,0.422,-1.784,-17.469,10.635
0.317,-0.882,0.420,-1.635,-17.220,10.606

0.698,-0.981,0.195,1.400,-60.644,18.706
0.701,-0.974,0.210,3.959,-98.916,25.943
0.703,-0.966,0.219,6.789,-129.642,31.989
0.714,-0.974,0.205,10.302,38.481,15.508
0.911,-0.967,0.536,36.946,134.714,8.564
0.884,-0.889,0.665,63.994,139.080,14.835
0.755,-0.862,0.725,74.523,135.005,22.553
0.719,-0.790,0.771,72.362,123.656,26.075
0.678,-0.741,0.790,58.191,102.842,26.794
0.649,-0.705,0.789,34.742,85.751,26.183
0.633,-0.703,0.769,13.413,74.711,24.897
0.622,-0.723,0.741,2.033,66.555,23.268
0.616,-0.740,0.710,-1.072,58.228,21.623
0.610,-0.747,0.677,-1.852,50.218,20.677
0.603,-0.749,0.649,-1.885,42.472,20.224
0.592,-0.753,0.624,-1.690,35.167,19.917
0.580,-0.758,0.603,-1.533,29.034,19.545
0.569,-0.765,0.585,-1.435,24.467,18.966
0.559,-0.776,0.571,-1.028,21.290,18.083
0.550,-0.791,0.561,-0.027,19.404,17.037
0.542,-0.805,0.553,1.760,18.209,16.111
0.533,-0.816,0.545,4.172,17.430,15.317
0.521,-0.823,0.536,6.729,16.927,14.591
0.508,-0.827,0.527,8.922,16.692,13.863
0.496,-0.828,0.517,10.304,16.664,13.143
0.485,-0.828,0.508,10.960,16.774,12.426
0.476,-0.828,0.501,10.939,16.874,11.628
0.469,-0.828,0.496,10.281,16.842,10.649
0.462,-0.829,0.493,8.891,16.646,9.435
0.456,-0.829,0.491,6.901,16.244,8.093
0.450,-0.830,0.491,4.541,15.713,6.729
0.445,-0.830,0.490,2.186,15.103,5.427
0.440,-0.831,0.490,0.180,14.450,4.269
0.437,-0.833,0.490,-0.510,13.787,3.419
0.433,-0.837,0.490,-1.355,13.144,2.823
0.430,-0.841,0.490,-1.874,12.524,2.428
0.427,-0.845,0.489,-2.169,11.921,2.157
0.423,-0.849,0.486,-2.342,11.337,1.940
0.419,-0.852,0.481,-2.439,10.780,1.752
0.415,-0.856,0.475,-2.483,10.249,1.575
0.411,-0.859,0.470,-2.484,9.739,1.409
0.407,-0.863,0.464,-2.475,9.238,1.290
0.403,-0.865,0.460,-2.509,8.735,1.208
0.398,-0.867,0.456,-2.584,8.238,1.153
0.394,-0.869,0.454,-2.710,7.737,1.120
0.389,-0.871,0.452,-2.883,7.230,1.111
0.384,-0.872,0.451,-3.095,6.724,1.109
0.379,-0.873,0.450,-3.333,6.224,1.128
0.374,-0.873,0.448,-3.609,5.736,1.139
0.370,-0.874,0.447,-3.924,5.253,1.126
0.366,-0.874,0.444,-4.278,4.794,1.156
0.363,-0.875,0.441,-4.506,4.386,1.315
0.360,-0.877,0.437,-4.636,3.987,1.235
0.356,-0.875,0.432,-4.745,3.526,0.943
0.353,-0.875,0.428,-4.961,3.254,1.219
0.354,-0.879,0.425,-4.955,2.998,1.536
0.352,-0.876,0.422,-4.787,2.612,1.495
0.350,-0.876,0.419,-4.645,2.232,1.492
0.348,-0.877,0.418,-4.453,1.859,1.561
0.348,-0.878,0.418,-4.240,1.445,1.648
0.346,-0.878,0.418,-4.057,0.977,1.699
0.345,-0.877,0.418,-3.942,0.396,1.681
0.343,-0.876,0.418,-3.928,-0.285,1.619
0.341,-0.875,0.419,-4.049,-1.031,1.555
0.340,-0.875,0.419,-4.257,-1.839,1.508
0.339,-0.874,0.419,-4.535,-2.719,1.468
0.339,-0.874,0.419,-4.847,-3.573,1.451
0.338,-0.873,0.419,-5.114,-4.401,1.481
0.337,-0.872,0.418,-5.396,-5.185,1.627
0.337,-0.872,0.417,-5.745,-5.911,1.840
0.337,-0.872,0.416,-6.079,-6.581,2.094
0.337,-0.873,0.414,-6.436,-7.121,2.379
0.338,-0.873,0.412,-6.821,-7.595,2.653
0.337,-0.874,0.410,-7.216,-8.056,2.920
0.336,-0.875,0.408,-7.601,-8.483,3.167
0.335,-0.877,0.406,-7.942,-8.894,3.353
0.334,-0.878,0.404,-8.240,-9.255,3.442
0.332,-0.880,0.401,-8.503,-9.598,3.427
0.331,-0.881,0.399,-8.758,-9.938,3.314
0.329,-0.882,0.396,-8.982,-10.255,3.059
0.328,-0.884,0.393,-9.199,-10.474,2.588
0.327,-0.886,0.390,-9.427,-10.567,1.971
0.326,-0.888,0.387,-9.642,-10.540,1.267
0.325,-0.890,0.384,-9.813,-10.395,0.591
0.324,-0.892,0.381,-9.850,-10.186,-0.029
0.324,-0.895,0.377,-10.001,-9.797,-0.664
0.324,-0.897,0.374,-10.051,-9.343,-1.259
0.324,-0.899,0.371,-10.072,-8.837,-1.810
0.323,-0.900,0.368,-10.046,-8.340,-2.318
0.322,-0.902,0.366,-9.980,-7.887,-2.792
0.321,-0.903,0.364,-9.891,-7.497,-3.236
0.321,-0.904,0.361,-9.759,-7.158,-3.652
0.320,-0.905,0.358,-9.605,-6.878,-4.058
0.320,-0.906,0.355,-9.459,-6.625,-4.441
0.320,-0.907,0.353,-9.353,-6.399,-4.815
0.321,-0.907,0.351,-9.306,-6.187,-5.203
0.322,-0.908,0.350,-9.327,-5.946,-5.609
0.323,-0.909,0.348,-9.394,-5.649,-6.008
0.324,-0.910,0.347,-9.498,-5.286,-6.391
0.326,-0.910,0.346,-9.637,-4.874,-6.740
0.327,-0.911,0.347,-9.784,-4.419,-7.045
0.328,-0.911,0.348,-9.937,-3.932,-7.327
0.330,-0.911,0.349,-10.068,-3.413,-7.567
0.332,-0.911,0.350,-10.206,-2.816,-7.744
0.334,-0.910,0.350,-10.378,-2.150,-7.872
0.336,-0.909,0.350,-10.537,-1.390,-7.969
0.338,-0.909,0.350,-10.699,-0.532,-8.027
0.341,-0.908,0.349,-10.885,0.436,-8.046
0.343,-0.907,0.348,-11.119,1.579,-8.046
0.345,-0.905,0.347,-11.415,2.876,-8.062
0.347,-0.904,0.346,-11.745,4.316,-8.107
0.349,-0.903,0.346,-12.021,5.906,-8.218
0.350,-0.903,0.346,-12.214,7.630,-8.391
0.352,-0.903,0.347,-12.329,9.459,-8.612
0.354,-0.902,0.349,-12.381,11.497,-8.845
0.356,-0.900,0.351,-12.451,13.730,-9.106
0.357,-0.898,0.352,-12.578,16.145,-9.433
0.359,-0.897,0.355,-12.677,18.686,-9.798
0.361,-0.895,0.357,-12.767,21.393,-10.189

0.821,-0.944,0.461,15.859,265.314,-22.400
0.938,-0.830,0.696,37.839,275.861,-16.394
0.816,-0.796,0.782,44.849,266.345,-11.366
0.765,-0.720,0.835,38.254,247.722,-7.776
0.741,-0.695,0.859,13.778,221.018,-7.717
0.724,-0.688,0.855,-9.365,198.249,-9.035
0.715,-0.704,0.828,-24.032,180.697,-9.313
0.709,-0.726,0.791,-31.340,166.412,-9.128
0.702,-0.738,0.751,-34.445,152.802,-8.895
0.687,-0.744,0.714,-36.620,140.265,-8.756
0.675,-0.753,0.685,-37.852,130.465,-8.729
0.664,-0.770,0.666,-37.707,123.119,-8.642
0.655,-0.788,0.653,-36.457,117.845,-8.401
0.644,-0.805,0.646,-34.104,113.835,-8.112
0.631,-0.819,0.640,-30.852,110.546,-7.735
0.616,-0.828,0.635,-27.332,107.265,-7.186
0.601,-0.833,0.629,-24.066,104.057,-6.527
0.585,-0.836,0.622,-21.317,100.971,-6.114
0.568,-0.833,0.614,-19.622,98.010,-5.940
0.552,-0.830,0.607,-18.888,95.128,-5.939
0.539,-0.827,0.602,-18.811,92.304,-6.010
0.529,-0.826,0.596,-19.278,89.557,-6.077
0.521,-0.826,0.591,-20.008,86.889,-6.124
0.513,-0.827,0.584,-20.782,84.298,-6.194
0.506,-0.828,0.577,-21.510,81.783,-6.287
0.500,-0.828,0.568,-22.060,79.341,-6.397
0.495,-0.830,0.560,-22.298,76.970,-6.505
0.491,-0.833,0.551,-22.206,74.666,-6.552
0.488,-0.837,0.543,-21.851,72.425,-6.517
0.485,-0.842,0.536,-21.279,70.247,-6.417
0.483,-0.846,0.529,-20.562,68.127,-6.284
0.479,-0.849,0.522,-19.789,66.061,-6.132
0.476,-0.853,0.515,-18.992,64.046,-5.960
0.472,-0.856,0.508,-18.189,62.082,-5.772
0.468,-0.858,0.502,-17.406,60.167,-5.574
0.463,-0.859,0.495,-16.770,58.303,-5.391
0.458,-0.860,0.488,-16.255,56.490,-5.212
0.453,-0.861,0.481,-15.838,54.728,-5.021
0.448,-0.862,0.474,-15.462,53.019,-4.826
0.442,-0.864,0.468,-15.086,51.364,-4.617
0.437,-0.865,0.463,-14.664,49.762,-4.392
0.432,-0.866,0.458,-14.205,48.212,-4.180
0.427,-0.866,0.453,-13.786,46.708,-3.991
0.422,-0.866,0.449,-13.425,45.248,-3.848
0.418,-0.865,0.445,-13.142,43.833,-3.756
0.414,-0.865,0.440,-12.940,42.462,-3.726
0.410,-0.864,0.435,-12.866,41.138,-3.816
0.406,-0.864,0.429,-12.879,39.873,-3.918
0.402,-0.864,0.423,-12.896,38.690,-3.891
0.399,-0.865,0.417,-12.967,37.508,-4.142
0.394,-0.864,0.412,-13.085,36.382,-4.411
0.392,-0.865,0.408,-13.267,35.328,-4.453
0.389,-0.867,0.405,-13.323,34.262,-4.556
0.385,-0.868,0.403,-13.362,33.178,-4.674
0.382,-0.870,0.401,-13.383,32.091,-4.818
0.379,-0.872,0.399,-13.344,30.999,-4.966
0.376,-0.874,0.398,-13.241,29.925,-5.067
0.373,-0.876,0.396,-13.072,28.878,-5.132
0.371,-0.877,0.394,-12.905,27.860,-5.232
0.368,-0.878,0.391,-12.764,26.866,-5.325
0.366,-0.879,0.389,-12.668,25.901,-5.415
0.364,-0.881,0.386,-12.565,24.955,-5.526
0.363,-0.882,0.383,-12.458,24.039,-5.600
0.362,-0.883,0.381,-12.307,23.169,-5.576
0.361,-0.885,0.379,-12.118,22.339,-5.475
0.360,-0.887,0.377,-11.904,21.553,-5.299
0.359,-0.888,0.375,-11.696,20.806,-5.069
0.358,-0.889,0.374,-11.488,20.076,-4.805
0.356,-0.891,0.372,-11.293,19.350,-4.560
0.355,-0.892,0.371,-11.112,18.627,-4.366
0.353,-0.893,0.370,-10.942,17.894,-4.216
0.352,-0.894,0.369,-10.763,17.156,-4.089
0.351,-0.895,0.368,-10.576,16.410,-3.965
0.349,-0.896,0.367,-10.370,15.668,-3.847
0.348,-0.897,0.366,-10.150,14.930,-3.724
0.347,-0.897,0.365,-9.918,14.195,-3.596
0.346,-0.897,0.364,-9.685,13.438,-3.466
0.345,-0.897,0.363,-9.465,12.649,-3.349
0.344,-0.897,0.362,-9.285,11.805,-3.231
0.343,-0.897,0.363,-9.167,10.863,-3.109
0.342,-0.896,0.364,-9.155,9.827,-2.968
0.341,-0.896,0.365,-9.173,8.768,-2.843
0.341,-0.895,0.367,-9.213,7.740,-2.757
0.341,-0.894,0.369,-9.164,6.732,-2.708
0.341,-0.892,0.372,-9.144,5.784,-2.679
0.340,-0.888,0.375,-9.308,4.822,-2.683
0.338,-0.886,0.377,-9.721,3.850,-2.835
0.338,-0.884,0.380,-10.210,2.924,-3.163
0.339,-0.881,0.382,-10.671,2.042,-3.627
0.339,-0.877,0.386,-11.268,1.235,-4.100
0.340,-0.873,0.389,-12.063,0.395,-4.624
0.341,-0.872,0.390,-13.090,-0.310,-5.216
0.344,-0.871,0.391,-14.232,-0.862,-5.885
0.348,-0.872,0.390,-15.284,-1.229,-6.618
0.352,-0.873,0.387,-16.125,-1.336,-7.375
0.357,-0.875,0.384,-16.838,-1.146,-8.100
0.362,-0.876,0.381,-17.473,-0.617,-8.697
0.367,-0.877,0.378,-18.059,0.289,-9.170
0.372,-0.876,0.377,-18.745,1.558,-9.535
0.376,-0.874,0.376,-19.502,3.223,-9.842
0.379,-0.872,0.376,-20.277,5.036,-10.151
0.381,-0.870,0.377,-21.022,6.919,-10.506
0.383,-0.868,0.378,-21.661,8.878,-10.946
0.386,-0.867,0.380,-22.214,10.907,-11.431
0.388,-0.866,0.383,-22.880,13.034,-11.932
0.391,-0.866,0.385,-23.627,15.208,-12.486
0.394,-0.867,0.387,-24.278,17.367,-13.093
0.399,-0.870,0.389,-24.598,19.875,-13.810
0.403,-0.871,0.390,-24.497,22.937,-14.565
0.407,-0.870,0.392,-24.264,26.734,-15.320
0.411,-0.867,0.395,-24.063,31.147,-16.071
0.415,-0.863,0.398,-24.091,35.978,-16.810
0.418,-0.858,0.401,-24.437,40.765,-17.560
0.421,-0.854,0.404,-25.101,45.438,-18.395
0.424,-0.852,0.407,-26.175,49.916,-19.274
0.427,-0.850,0.410,-27.463,54.043,-20.204
0.431,-0.850,0.412,-29.030,58.146,-21.192
0.434,-0.849,0.413,-30.694,62.236,-22.197
0.438,-0.849,0.413,-32.325,66.289,-23.228

0.722,-0.954,0.184,-24.425,18.223,-15.899
0.725,-0.951,0.189,-16.978,-23.949,-8.917
0.727,-0.951,0.168,-9.865,-34.325,-7.209
0.832,-0.972,0.499,11.133,164.270,-18.670
0.929,-0.796,0.672,16.483,176.856,-16.427
0.781,-0.797,0.724,27.850,171.315,-11.796
0.727,-0.762,0.763,27.494,166.233,-3.518
0.692,-0.747,0.792,24.447,150.991,-1.245
0.664,-0.715,0.800,16.632,127.635,-0.608
0.646,-0.691,0.783,5.618,107.472,-0.492
0.634,-0.694,0.751,-3.323,94.772,-0.575
0.622,-0.710,0.715,-7.275,83.505,-0.843
0.615,-0.717,0.687,-9.054,74.679,-0.872
0.608,-0.723,0.662,-9.832,67.004,-0.762
0.596,-0.735,0.641,-10.180,60.434,-0.984
0.583,-0.744,0.623,-10.440,55.454,-1.471
0.572,-0.755,0.610,-10.536,52.507,-2.199
0.562,-0.771,0.602,-10.354,50.435,-3.083
0.554,-0.786,0.595,-9.916,48.860,-3.862
0.545,-0.799,0.586,-9.190,47.436,-4.464
0.534,-0.808,0.573,-8.135,46.251,-4.973
0.522,-0.814,0.561,-6.832,45.358,-5.464
0.511,-0.816,0.550,-5.620,44.689,-6.045
0.500,-0.815,0.542,-4.842,43.978,-6.778
0.491,-0.813,0.537,-4.604,43.110,-7.588
0.483,-0.810,0.533,-5.019,42.087,-8.322
0.475,-0.809,0.529,-5.941,40.952,-8.993
0.469,-0.807,0.524,-7.134,39.733,-9.606
0.462,-0.806,0.518,-8.364,38.442,-10.120
0.458,-0.807,0.511,-9.413,37.075,-10.537
0.455,-0.811,0.504,-10.114,35.636,-10.837
0.452,-0.816,0.496,-10.358,34.215,-10.964
0.451,-0.823,0.488,-10.309,32.900,-10.959
0.451,-0.830,0.479,-10.012,31.770,-10.813
0.451,-0.837,0.471,-9.480,30.769,-10.523
0.450,-0.844,0.464,-8.780,29.876,-10.057
0.448,-0.850,0.458,-8.030,29.070,-9.462
0.445,-0.854,0.452,-7.380,28.318,-8.787
0.441,-0.858,0.447,-6.886,27.581,-8.132
0.437,-0.860,0.442,-6.548,26.827,-7.549
0.431,-0.861,0.438,-6.342,26.023,-7.050
0.425,-0.862,0.435,-6.233,25.191,-6.624
0.420,-0.863,0.432,-6.194,24.346,-6.266
0.414,-0.864,0.428,-6.189,23.496,-5.976
0.409,-0.864,0.425,-6.219,22.644,-5.765
0.405,-0.865,0.421,-6.295,21.805,-5.567
0.401,-0.865,0.418,-6.355,21.004,-5.293
0.398,-0.866,0.414,-6.473,20.181,-5.179
0.393,-0.865,0.410,-6.564,19.349,-5.189
0.391,-0.866,0.406,-6.767,18.636,-4.897
0.390,-0.868,0.403,-6.895,17.963,-4.663
0.388,-0.869,0.399,-6.971,17.282,-4.491
0.385,-0.870,0.396,-7.060,16.594,-4.342
0.383,-0.870,0.393,-7.093,15.885,-4.245
0.381,-0.871,0.390,-7.076,15.152,-4.164
0.379,-0.871,0.388,-7.013,14.395,-4.089
0.377,-0.872,0.385,-6.930,13.627,-4.017
0.375,-0.872,0.383,-6.844,12.827,-3.964
0.373,-0.873,0.381,-6.748,11.971,-3.936
0.372,-0.874,0.379,-6.653,11.092,-3.922
0.371,-0.875,0.377,-6.548,10.219,-3.881
0.370,-0.877,0.375,-6.410,9.376,-3.805
0.369,-0.879,0.373,-6.275,8.567,-3.666
0.368,-0.881,0.371,-6.152,7.811,-3.444
0.368,-0.883,0.369,-6.030,7.109,-3.142
0.367,-0.885,0.367,-5.902,6.463,-2.789
0.367,-0.887,0.364,-5.760,5.851,-2.448
0.366,-0.888,0.361,-5.616,5.270,-2.132
0.365,-0.890,0.358,-5.476,4.697,-1.846
0.364,-0.891,0.355,-5.337,4.124,-1.609
0.363,-0.892,0.351,-5.184,3.545,-1.429
0.361,-0.893,0.348,-5.016,2.960,-1.302
0.360,-0.893,0.346,-4.818,2.377,-1.223
0.359,-0.894,0.343,-4.623,1.805,-1.158
0.359,-0.895,0.341,-4.420,1.247,-1.106
0.358,-0.895,0.340,-4.228,0.673,-1.079
0.357,-0.896,0.338,-4.063,0.096,-1.064
0.357,-0.896,0.337,-3.957,-0.462,-1.067
0.356,-0.895,0.336,-3.875,-1.035,-1.087
0.356,-0.895,0.335,-3.874,-1.612,-1.097
0.355,-0.894,0.334,-3.926,-2.212,-1.123
0.355,-0.893,0.333,-3.943,-2.767,-1.200
0.354,-0.891,0.333,-4.006,-3.313,-1.272
0.353,-0.889,0.332,-4.244,-3.915,-1.381
0.352,-0.888,0.331,-4.416,-4.495,-1.574
0.352,-0.887,0.329,-4.506,-5.020,-1.789
0.352,-0.886,0.327,-4.663,-5.540,-2.002
0.352,-0.885,0.325,-4.862,-6.024,-2.244
0.352,-0.885,0.323,-5.075,-6.474,-2.543
0.352,-0.886,0.320,-5.266,-6.872,-2.854
0.352,-0.886,0.317,-5.421,-7.230,-3.165
0.353,-0.887,0.314,-5.560,-7.525,-3.466
0.353,-0.888,0.311,-5.668,-7.797,-3.754
0.353,-0.889,0.307,-5.764,-8.024,-4.011
0.354,-0.890,0.305,-5.873,-8.229,-4.233
0.354,-0.891,0.303,-5.997,-8.465,-4.411
0.354,-0.892,0.301,-6.188,-8.694,-4.550
0.354,-0.892,0.300,-6.404,-8.918,-4.665
0.353,-0.893,0.299,-6.618,-9.158,-4.765
0.353,-0.894,0.299,-6.808,-9.413,-4.862
0.353,-0.896,0.298,-6.958,-9.640,-4.956
0.353,-0.896,0.298,-7.062,-9.835,-5.062
0.353,-0.897,0.298,-7.112,-9.983,-5.187
0.354,-0.899,0.297,-7.158,-10.053,-5.323
0.354,-0.901,0.295,-7.148,-10.048,-5.483
0.355,-0.903,0.293,-7.063,-9.958,-5.657
0.356,-0.906,0.290,-6.905,-9.780,-5.811
0.357,-0.907,0.287,-6.678,-9.519,-5.930
0.358,-0.909,0.285,-6.412,-9.156,-6.014
0.359,-0.909,0.282,-6.193,-8.707,-6.077
0.360,-0.910,0.281,-6.027,-8.194,-6.121
0.360,-0.909,0.280,-5.934,-7.674,-6.163
0.360,-0.908,0.280,-5.964,-7.176,-6.213
0.360,-0.908,0.281,-6.074,-6.740,-6.298
0.360,-0.908,0.282,-6.264,-6.385,-6.425
0.360,-0.908,0.283,-6.540,-6.148,-6.579
0.360,-0.908,0.284,-6.880,-5.994,-6.734
0.361,-0.909,0.285,-7.222,-5.883,-6.872
0.361,-0.909,0.284,-7.555,-5.767,-6.961

0.791,-1.042,0.042,1.358,-7.368,-12.358
1.004,-0.911,0.521,50.705,138.265,-11.789
0.913,-0.853,0.619,68.500,136.703,-5.519
0.809,-0.815,0.652,71.132,132.770,1.803
0.755,-0.779,0.677,66.848,121.782,4.760
0.717,-0.761,0.693,55.819,100.962,5.191
0.698,-0.724,0.678,38.717,81.027,4.691
0.689,-0.715,0.649,23.773,65.925,4.424
0.681,-0.732,0.617,14.718,54.310,4.097
0.673,-0.740,0.588,9.739,44.646,3.900
0.668,-0.736,0.565,6.547,38.506,3.657
0.659,-0.745,0.555,4.827,33.404,3.326
0.647,-0.759,0.549,4.223,29.344,3.061
0.636,-0.769,0.543,4.087,26.413,2.956
0.625,-0.781,0.538,4.190,24.200,2.833
0.614,-0.794,0.531,4.375,22.461,2.663
0.603,-0.804,0.522,4.487,21.155,2.533
0.590,-0.813,0.508,4.676,20.337,2.446
0.578,-0.823,0.493,5.397,19.857,2.312
0.566,-0.828,0.479,6.322,19.775,2.038
0.555,-0.829,0.467,6.852,19.914,1.584
0.545,-0.829,0.458,6.772,20.072,0.952
0.535,-0.828,0.451,6.128,20.128,0.195
0.526,-0.828,0.446,4.901,20.032,-0.608
0.517,-0.828,0.442,3.260,19.822,-1.369
0.510,-0.828,0.438,1.512,19.509,-2.038
0.505,-0.830,0.433,-0.044,19.123,-2.518
0.501,-0.834,0.428,-1.098,18.704,-2.860
0.498,-0.838,0.421,-1.721,18.270,-3.064
0.495,-0.844,0.414,-1.990,17.860,-3.138
0.493,-0.848,0.408,-2.029,17.480,-3.115
0.490,-0.853,0.401,-1.952,17.110,-3.060
0.486,-0.856,0.396,-1.829,16.726,-3.043
0.481,-0.859,0.391,-1.738,16.309,-3.077
0.476,-0.861,0.386,-1.691,15.846,-3.176
0.471,-0.864,0.383,-1.678,15.302,-3.312
0.465,-0.866,0.380,-1.694,14.710,-3.455
0.460,-0.868,0.377,-1.722,14.086,-3.568
0.455,-0.870,0.375,-1.732,13.465,-3.568
0.449,-0.872,0.373,-1.702,12.866,-3.447
0.444,-0.874,0.371,-1.627,12.293,-3.207
0.439,-0.876,0.369,-1.517,11.768,-2.884
0.434,-0.878,0.366,-1.415,11.281,-2.519
0.429,-0.878,0.364,-1.340,10.833,-2.150
0.424,-0.879,0.361,-1.333,10.410,-1.813
0.419,-0.879,0.359,-1.380,10.013,-1.537
0.414,-0.879,0.356,-1.488,9.629,-1.340
0.410,-0.879,0.354,-1.664,9.239,-1.236
0.406,-0.879,0.352,-1.911,8.833,-1.226
0.402,-0.879,0.351,-2.224,8.409,-1.288
0.398,-0.879,0.349,-2.622,7.970,-1.372
0.395,-0.880,0.348,-3.032,7.520,-1.476
0.393,-0.880,0.346,-3.447,7.071,-1.485
0.390,-0.881,0.344,-3.749,6.638,-1.342
0.389,-0.882,0.342,-3.967,6.151,-1.389
0.385,-0.881,0.339,-4.176,5.537,-1.448
0.383,-0.883,0.337,-4.430,5.083,-1.118
0.384,-0.886,0.335,-4.465,4.579,-1.034
0.382,-0.886,0.332,-4.508,3.930,-1.000
0.380,-0.887,0.330,-4.578,3.310,-0.906
0.379,-0.889,0.328,-4.581,2.689,-0.779
0.378,-0.890,0.326,-4.542,2.057,-0.665
0.376,-0.891,0.323,-4.493,1.405,-0.573
0.375,-0.892,0.321,-4.460,0.758,-0.482
0.374,-0.893,0.318,-4.414,0.136,-0.402
0.373,-0.893,0.315,-4.352,-0.449,-0.324
0.373,-0.894,0.312,-4.274,-1.029,-0.215
0.372,-0.894,0.309,-4.139,-1.570,-0.048
0.372,-0.894,0.306,-3.957,-2.062,0.135
0.370,-0.895,0.303,-3.697,-2.514,0.328
0.369,-0.895,0.300,-3.370,-2.944,0.530
0.369,-0.896,0.297,-2.983,-3.390,0.740
0.368,-0.896,0.294,-2.512,-3.834,0.926
0.366,-0.896,0.290,-2.014,-4.258,1.063
0.364,-0.896,0.287,-1.483,-4.683,1.137
0.363,-0.898,0.284,-0.949,-5.159,1.176
0.363,-0.898,0.282,-0.271,-5.675,1.129
0.360,-0.896,0.279,0.287,-6.189,1.107
0.358,-0.897,0.277,0.778,-6.762,1.043
0.356,-0.899,0.276,1.313,-7.330,0.945
0.355,-0.901,0.275,1.834,-7.876,0.834
0.354,-0.903,0.273,2.294,-8.430,0.719
0.353,-0.905,0.272,2.679,-8.924,0.587
0.352,-0.906,0.271,3.052,-9.383,0.450
0.351,-0.908,0.274,3.374,-9.781,0.314
0.351,-0.909,0.273,3.648,-10.148,0.177
0.350,-0.910,0.273,3.855,-10.512,0.041
0.349,-0.911,0.273,3.992,-10.873,-0.096
0.348,-0.912,0.273,4.029,-11.247,-0.250
0.348,-0.912,0.273,3.974,-11.635,-0.414
0.347,-0.911,0.273,3.848,-12.047,-0.606
0.347,-0.911,0.273,3.666,-12.473,-0.840
0.347,-0.911,0.274,3.443,-12.915,-1.101
0.347,-0.911,0.275,3.202,-13.371,-1.367
0.348,-0.911,0.276,2.964,-13.835,-1.618
0.348,-0.911,0.278,2.735,-14.306,-1.850
0.349,-0.910,0.280,2.498,-14.781,-2.038
0.349,-0.909,0.284,2.268,-15.248,-2.188
0.350,-0.908,0.288,2.031,-15.718,-2.307
0.350,-0.907,0.293,1.804,-16.134,-2.413
0.350,-0.905,0.298,1.578,-16.508,-2.511
0.351,-0.902,0.304,1.376,-16.919,-2.627
0.351,-0.899,0.307,1.032,-17.191,-2.764
0.353,-0.897,0.311,0.565,-17.305,-2.952
0.355,-0.894,0.314,-0.048,-17.219,-3.199
0.357,-0.892,0.316,-0.858,-17.008,-3.478
0.360,-0.890,0.318,-1.839,-16.668,-3.808
0.362,-0.889,0.320,-3.027,-16.207,-4.164
0.366,-0.888,0.323,-4.300,-15.607,-4.525
0.369,-0.887,0.326,-5.585,-14.790,-4.914
0.372,-0.885,0.331,-6.831,-13.743,-5.307
0.375,-0.882,0.336,-8.015,-12.368,-5.738
0.377,-0.878,0.340,-9.075,-10.521,-6.235
0.380,-0.875,0.346,-9.889,-8.053,-6.855
0.383,-0.875,0.352,-10.488,-5.005,-7.574
0.387,-0.874,0.358,-10.859,-1.333,-8.336
0.392,-0.873,0.365,-11.125,3.293,-9.179
0.398,-0.873,0.372,-11.341,9.148,-10.182
0.402,-0.873,0.378,-11.532,15.916,-11.294

0.945,-1.037,0.074,-3.469,261.938,-18.929
0.910,-1.050,0.212,21.316,289.685,-25.378
0.768,-0.942,0.382,21.281,283.868,-23.792
0.723,-0.809,0.526,12.449,274.662,-25.502
0.694,-0.794,0.614,6.636,254.078,-25.150
0.673,-0.814,0.646,3.167,226.913,-24.021
0.661,-0.824,0.646,0.004,201.347,-22.836
0.653,-0.827,0.625,-2.742,178.076,-22.020
0.644,-0.827,0.592,-4.071,157.368,-21.549
0.630,-0.829,0.557,-4.491,138.943,-21.130
0.614,-0.838,0.524,-4.664,123.170,-20.665
0.601,-0.847,0.498,-4.687,110.125,-20.321
0.585,-0.856,0.477,-4.578,100.615,-20.333
0.568,-0.867,0.460,-4.053,93.905,-20.723
0.553,-0.881,0.449,-2.808,89.470,-21.125
0.541,-0.894,0.442,-0.942,86.553,-21.258
0.529,-0.903,0.437,0.977,84.053,-21.313
0.518,-0.908,0.432,2.363,81.666,-21.381
0.507,-0.909,0.427,3.037,79.415,-21.520
0.497,-0.908,0.423,3.155,77.252,-21.775
0.487,-0.904,0.418,2.920,75.152,-22.133
0.480,-0.899,0.415,2.355,73.097,-22.520
0.474,-0.894,0.412,1.511,71.077,-22.883
0.468,-0.890,0.410,0.566,69.084,-23.181
0.463,-0.887,0.407,-0.318,67.118,-23.333
0.459,-0.886,0.405,-1.028,65.182,-23.354
0.456,-0.887,0.402,-1.510,63.289,-23.241
0.455,-0.889,0.399,-1.734,61.437,-23.020
0.455,-0.893,0.397,-1.737,59.628,-22.727
0.454,-0.898,0.395,-1.542,57.862,-22.352
0.454,-0.902,0.393,-1.155,56.144,-21.875
0.453,-0.906,0.391,-0.726,54.475,-21.289
0.452,-0.909,0.389,-0.311,52.859,-20.583
0.450,-0.912,0.386,0.033,51.305,-19.784
0.447,-0.915,0.384,0.265,49.804,-18.936
0.443,-0.916,0.382,0.392,48.347,-18.094
0.439,-0.917,0.381,-0.130,46.921,-17.322
0.433,-0.916,0.380,-0.222,45.525,-16.625
0.427,-0.915,0.379,-0.357,44.159,-15.991
0.421,-0.913,0.379,-0.510,42.824,-15.399
0.416,-0.911,0.378,-0.653,41.527,-14.857
0.410,-0.909,0.377,-0.793,40.266,-14.390
0.406,-0.907,0.376,-0.940,39.040,-14.464
0.401,-0.905,0.375,-1.151,37.843,-14.121
0.398,-0.904,0.374,-1.386,36.669,-13.799
0.395,-0.904,0.374,-1.718,35.566,-13.511
0.391,-0.901,0.373,-1.995,34.409,-13.383
0.390,-0.900,0.373,-2.364,33.330,-13.070
0.389,-0.902,0.372,-2.683,32.280,-12.662
0.388,-0.901,0.371,-2.854,31.218,-12.317
0.387,-0.901,0.371,-2.982,30.158,-11.951
0.386,-0.900,0.370,-3.001,29.012,-11.582
0.385,-0.900,0.370,-2.921,27.737,-11.195
0.384,-0.899,0.370,-2.764,26.363,-10.775
0.384,-0.898,0.371,-2.555,24.890,-10.361
0.383,-0.896,0.372,-2.365,23.308,-9.930
0.382,-0.895,0.373,-2.247,21.592,-9.492
0.380,-0.893,0.374,-2.218,19.697,-9.110
0.379,-0.891,0.376,-2.314,17.600,-8.733
0.378,-0.889,0.378,-2.563,15.435,-8.321
0.377,-0.888,0.380,-2.927,13.273,-7.855
0.376,-0.887,0.381,-3.392,11.185,-7.262
0.376,-0.887,0.382,-3.891,9.232,-6.573
0.376,-0.886,0.381,-4.427,7.450,-5.825
0.375,-0.885,0.379,-4.969,5.889,-5.030
0.375,-0.884,0.376,-5.479,4.486,-4.241
0.374,-0.882,0.372,-5.942,3.204,-3.506
0.373,-0.881,0.368,-6.325,1.995,-2.908
0.372,-0.879,0.364,-6.618,0.802,-2.404
0.370,-0.878,0.361,-6.829,-0.389,-2.008
0.369,-0.876,0.357,-6.994,-1.562,-1.713
0.368,-0.875,0.352,-7.105,-2.684,-1.488
0.367,-0.874,0.348,-7.194,-3.765,-1.384
0.365,-0.874,0.343,-7.221,-4.759,-1.402
0.363,-0.874,0.337,-7.273,-5.669,-1.543
0.362,-0.875,0.332,-7.339,-6.437,-1.796
0.361,-0.877,0.327,-7.428,-7.091,-2.164
0.360,-0.880,0.322,-7.568,-7.658,-2.643
0.359,-0.882,0.318,-7.744,-8.161,-3.150
0.357,-0.884,0.315,-7.981,-8.567,-3.657
0.356,-0.886,0.312,-8.225,-8.932,-4.158
0.354,-0.888,0.310,-8.514,-9.253,-4.650
0.352,-0.889,0.309,-8.870,-9.571,-5.148
0.351,-0.890,0.309,-9.271,-9.934,-5.650
0.349,-0.891,0.309,-9.700,-10.331,-6.164
0.348,-0.891,0.309,-10.165,-10.776,-6.680
0.347,-0.892,0.309,-10.595,-11.236,-7.218
0.346,-0.892,0.308,-11.016,-11.687,-7.770
0.346,-0.893,0.307,-11.399,-12.019,-8.330
0.347,-0.894,0.305,-11.632,-12.300,-8.854
0.347,-0.896,0.302,-11.820,-12.344,-9.337
0.349,-0.897,0.299,-11.888,-12.215,-9.762
0.352,-0.899,0.297,-11.824,-11.873,-10.168
0.355,-0.902,0.294,-11.602,-11.219,-10.556
0.358,-0.903,0.293,-11.288,-10.289,-10.863
0.361,-0.902,0.294,-10.990,-9.218,-11.037
0.363,-0.899,0.295,-10.789,-8.235,-11.157
0.364,-0.895,0.297,-10.642,-7.318,-11.297
0.366,-0.893,0.300,-10.551,-6.464,-11.473
0.367,-0.891,0.303,-10.483,-5.650,-11.682
0.370,-0.889,0.306,-10.439,-4.809,-11.929
0.373,-0.888,0.308,-10.401,-3.899,-12.234
0.376,-0.886,0.311,-10.359,-2.940,-12.610
0.379,-0.885,0.312,-10.359,-1.780,-13.019
0.383,-0.884,0.314,-10.415,-0.439,-13.408
0.387,-0.883,0.316,-10.595,1.255,-13.754
0.391,-0.881,0.319,-10.834,3.114,-14.103
0.395,-0.879,0.322,-11.060,5.245,-14.530
0.399,-0.878,0.326,-11.177,7.654,-15.065
0.402,-0.877,0.330,-11.259,10.297,-15.650
0.406,-0.875,0.335,-11.424,13.090,-16.248
0.409,-0.871,0.340,-11.805,15.984,-16.839
0.412,-0.868,0.345,-12.568,18.892,-17.426
0.415,-0.865,0.349,-13.684,21.826,-18.043
0.417,-0.863,0.353,-15.196,24.750,-18.805
0.420,-0.861,0.356,-16.924,27.634,-19.660
0.424,-0.859,0.359,-18.778,30.490,-20.597
0.427,-0.858,0.361,-20.638,33.469,-21.604
0.430,-0.858,0.362,-22.459,36.622,-22.626

0.781,-0.970,0.115,-15.847,-5.082,-12.942
0.785,-0.967,0.125,-9.248,-42.124,-3.718
0.788,-0.963,0.134,-2.592,-73.931,4.206
0.816,-0.954,0.105,10.153,157.606,-21.564
0.977,-0.909,0.342,70.407,272.956,-22.170
0.845,-0.859,0.498,97.518,273.503,-12.421
0.747,-0.737,0.621,96.060,264.471,-2.968
0.719,-0.681,0.695,88.948,241.177,2.172
0.686,-0.653,0.728,71.520,214.274,4.524
0.665,-0.637,0.738,49.856,187.170,4.761
0.645,-0.635,0.727,27.411,163.688,4.186
0.627,-0.642,0.702,11.310,145.025,2.631
0.616,-0.650,0.670,2.852,129.960,0.982
0.609,-0.659,0.639,-1.382,116.736,0.050
0.598,-0.671,0.609,-3.068,104.047,-0.227
0.586,-0.681,0.580,-3.680,91.916,-0.161
0.575,-0.691,0.554,-3.881,81.036,0.083
0.565,-0.702,0.532,-3.816,72.083,0.297
0.555,-0.716,0.514,-3.376,65.317,0.314
0.544,-0.733,0.499,-1.265,60.558,0.018
0.534,-0.752,0.487,1.661,57.297,-0.305
0.524,-0.767,0.476,5.853,55.091,-0.545
0.514,-0.778,0.466,10.560,53.461,-0.741
0.501,-0.784,0.457,14.901,52.049,-0.939
0.489,-0.788,0.449,18.157,50.794,-1.189
0.478,-0.789,0.442,20.000,49.673,-1.536
0.470,-0.791,0.437,20.559,48.686,-1.983
0.463,-0.793,0.432,20.127,47.859,-2.602
0.459,-0.796,0.430,19.182,47.196,-3.375
0.454,-0.798,0.428,17.765,46.684,-4.274
0.450,-0.799,0.427,16.044,46.265,-5.244
0.447,-0.799,0.428,14.206,45.788,-6.176
0.444,-0.799,0.429,12.485,45.148,-6.929
0.441,-0.800,0.430,11.044,44.326,-7.432
0.439,-0.802,0.431,9.955,43.364,-7.696
0.436,-0.805,0.431,9.314,42.317,-7.721
0.434,-0.808,0.430,8.937,41.235,-7.635
0.431,-0.812,0.427,8.734,40.121,-7.473
0.428,-0.816,0.424,8.633,38.980,-7.279
0.424,-0.819,0.420,8.580,37.808,-7.115
0.420,-0.822,0.417,8.547,36.630,-7.024
0.416,-0.826,0.414,8.509,35.455,-7.019
0.412,-0.830,0.412,8.468,34.263,-7.116
0.407,-0.834,0.410,8.391,33.034,-7.351
0.403,-0.838,0.408,8.270,31.795,-7.663
0.398,-0.842,0.408,8.092,30.566,-7.986
0.394,-0.845,0.407,7.903,29.410,-8.258
0.390,-0.848,0.406,7.739,28.353,-8.409
0.386,-0.851,0.405,7.623,27.400,-8.428
0.381,-0.853,0.403,7.555,26.518,-8.340
0.377,-0.854,0.402,7.495,25.708,-8.200
0.373,-0.854,0.400,7.396,24.954,-8.081
0.369,-0.854,0.397,7.222,24.245,-8.012
0.365,-0.853,0.395,6.976,23.571,-8.056
0.362,-0.853,0.393,6.614,22.919,-8.142
0.359,-0.853,0.391,6.183,22.277,-8.286
0.357,-0.853,0.391,5.671,21.652,-8.438
0.355,-0.852,0.390,5.195,20.968,-8.863
0.353,-0.852,0.391,4.661,20.350,-9.077
0.353,-0.853,0.392,4.245,19.771,-9.174
0.352,-0.854,0.392,3.970,19.167,-9.284
0.351,-0.855,0.393,3.763,18.582,-9.321
0.350,-0.856,0.394,3.659,17.996,-9.370
0.349,-0.856,0.395,3.611,17.383,-9.446
0.348,-0.857,0.395,3.584,16.776,-9.529
0.346,-0.857,0.396,3.529,16.169,-9.661
0.345,-0.856,0.395,3.410,15.566,-9.855
0.344,-0.856,0.395,3.155,14.965,-10.163
0.344,-0.856,0.394,2.808,14.370,-10.543
0.343,-0.856,0.394,2.374,13.793,-10.954
0.343,-0.856,0.393,1.900,13.240,-11.358
0.344,-0.857,0.392,1.411,12.732,-11.701
0.345,-0.857,0.391,0.934,12.268,-11.966
0.346,-0.858,0.390,0.498,11.858,-12.134
0.347,-0.860,0.389,0.113,11.503,-12.196
0.348,-0.861,0.388,-0.210,11.199,-12.168
0.349,-0.862,0.388,-0.509,10.926,-12.139
0.350,-0.863,0.387,-0.837,10.658,-12.113
0.351,-0.864,0.387,-1.210,10.367,-12.119
0.352,-0.865,0.387,-1.629,10.045,-12.163
0.352,-0.866,0.388,-2.100,9.699,-12.257
0.353,-0.867,0.388,-2.611,9.340,-12.436
0.354,-0.867,0.389,-3.205,8.956,-12.623
0.354,-0.868,0.391,-3.887,8.534,-12.841
0.355,-0.869,0.393,-4.616,8.092,-13.061
0.356,-0.869,0.394,-5.373,7.656,-13.270
0.357,-0.870,0.396,-6.130,7.235,-13.445
0.359,-0.871,0.398,-6.825,6.804,-13.575
0.360,-0.872,0.399,-7.459,6.374,-13.667
0.360,-0.872,0.400,-8.027,5.941,-13.732
0.361,-0.872,0.400,-8.550,5.520,-13.760
0.361,-0.872,0.400,-8.992,5.095,-13.769
0.362,-0.871,0.399,-9.344,4.663,-13.754
0.362,-0.870,0.398,-9.638,4.207,-13.700
0.362,-0.870,0.397,-9.915,3.756,-13.618
0.361,-0.869,0.396,-10.139,3.309,-13.540
0.361,-0.868,0.395,-10.344,2.874,-13.467
0.361,-0.868,0.395,-10.528,2.405,-13.400
0.361,-0.867,0.395,-10.677,1.885,-13.338
0.360,-0.866,0.396,-10.794,1.324,-13.292
0.360,-0.865,0.398,-10.891,0.775,-13.276
0.359,-0.864,0.400,-10.944,0.224,-13.275
0.359,-0.864,0.400,-10.860,-0.320,-13.292
0.359,-0.863,0.399,-10.773,-0.765,-13.300
0.360,-0.863,0.398,-10.642,-1.079,-13.312
0.361,-0.864,0.395,-10.493,-1.270,-13.310
0.363,-0.865,0.392,-10.311,-1.336,-13.242
0.364,-0.865,0.388,-10.119,-1.314,-13.100
0.365,-0.865,0.386,-9.956,-1.240,-12.876
0.366,-0.865,0.385,-9.843,-1.143,-12.600
0.367,-0.864,0.385,-9.749,-1.049,-12.294
0.368,-0.862,0.386,-9.642,-0.944,-11.998
0.370,-0.860,0.389,-9.508,-0.822,-11.725
0.371,-0.858,0.392,-9.350,-0.668,-11.481
0.372,-0.855,0.395,-9.231,-0.448,-11.253
0.373,-0.852,0.399,-9.158,-0.164,-11.053
0.374,-0.850,0.403,-9.123,0.228,-10.892
0.376,-0.848,0.407,-9.088,0.712,-10.755
0.378,-0.847,0.410,-9.056,1.269,-10.648

0.473,-0.849,0.532,-10.023,6.162,-10.980
0.475,-0.848,0.534,-11.189,11.349,-11.306
0.477,-0.848,0.534,-12.502,16.777,-11.613
0.479,-0.849,0.533,-13.937,22.342,-11.877
0.481,-0.851,0.530,-15.450,28.218,-12.108
0.484,-0.853,0.527,-17.002,34.326,-12.331
0.487,-0.857,0.523,-18.451,40.864,-12.601
0.490,-0.861,0.519,-19.721,47.905,-12.934
0.493,-0.865,0.515,-20.798,55.407,-13.279
0.496,-0.870,0.511,-21.684,65.332,-13.627
0.498,-0.874,0.507,-22.386,73.606,-13.916
0.499,-0.878,0.502,-22.911,81.940,-14.132
0.500,-0.880,0.496,-23.251,90.339,-14.292
0.500,-0.883,0.489,-23.449,98.750,-14.316
0.499,-0.884,0.479,-23.646,107.111,-14.190
0.498,-0.885,0.469,-23.879,115.440,-13.962
0.495,-0.885,0.459,-24.054,123.967,-13.728
0.492,-0.885,0.449,-24.066,132.449,-13.562
0.488,-0.886,0.439,-24.020,140.827,-13.455
0.484,-0.887,0.429,-23.908,148.806,-13.427
0.480,-0.889,0.419,-23.694,156.206,-13.516
0.476,-0.891,0.407,-23.388,162.886,-13.723
0.472,-0.894,0.393,-22.978,168.870,-14.011
0.467,-0.897,0.378,-22.519,174.346,-14.299
0.462,-0.900,0.364,-22.041,179.446,-14.586
0.456,-0.902,0.351,-21.476,184.080,-14.984
0.450,-0.904,0.339,-20.855,187.994,-15.436
0.444,-0.906,0.328,-20.229,190.906,-15.896
0.438,-0.907,0.318,-19.535,192.801,-16.365
0.431,-0.909,0.307,-18.830,193.268,-16.802
0.425,-0.911,0.294,-18.133,192.414,-17.128
0.418,-0.914,0.280,-17.415,190.541,-17.404
0.412,-0.919,0.262,-16.748,188.111,-17.606
0.408,-0.924,0.244,-16.108,185.274,-17.701
0.403,-0.928,0.226,-15.362,182.255,-17.729
0.397,-0.931,0.210,-14.523,179.007,-17.659
0.392,-0.934,0.195,-13.726,175.502,-17.517
0.386,-0.937,0.181,-12.969,171.680,-17.288
0.381,-0.939,0.170,-12.293,167.362,-16.966
0.376,-0.941,0.158,-11.751,162.791,-16.540
0.370,-0.943,0.147,-11.330,158.134,-15.997
0.366,-0.947,0.133,-11.056,153.602,-15.281
0.362,-0.952,0.118,-10.920,149.390,-14.443
0.360,-0.958,0.103,-10.847,145.191,-13.466
0.359,-0.963,0.086,-10.827,139.089,-12.354
0.358,-0.969,0.071,-10.809,131.520,-11.128
0.358,-0.975,0.056,-10.764,122.442,-9.620
0.360,-0.980,0.043,-10.673,111.793,-7.846
0.361,-0.985,0.032,-10.529,99.515,-5.806
0.363,-0.988,0.023,-10.316,85.032,-3.480
0.366,-0.992,0.015,-10.032,69.431,-0.913
0.369,-0.996,0.007,-9.724,53.052,1.871
0.373,-1.000,-0.000,-9.333,36.012,4.916
0.378,-1.004,-0.007,-8.909,18.334,8.121
0.382,-1.007,-0.014,-8.488,0.103,11.515
0.388,-1.010,-0.020,-8.099,-19.299,15.093
0.394,-1.012,-0.024,-7.717,-38.970,18.830
0.400,-1.014,-0.028,-7.348,-58.932,22.847
0.406,-1.016,-0.029,-7.056,-79.086,27.016
0.413,-1.018,-0.030,-6.785,-99.189,31.327
0.420,-1.020,-0.029,-6.502,-119.477,35.766
0.428,-1.022,-0.026,-6.152,-139.089,40.321
0.435,-1.023,-0.022,-5.712,-158.013,45.190
0.442,-1.023,-0.016,-5.190,-176.517,50.212
0.449,-1.023,-0.009,-4.570,-194.724,55.322
0.455,-1.022,-0.001,-3.752,-213.252,60.408
0.460,-1.021,0.008,-2.488,-231.253,65.241
0.466,-1.021,0.015,-0.656,-248.324,69.698
0.471,-1.020,0.021,1.698,-264.132,73.741
0.478,-1.018,0.027,4.412,-278.808,77.313
0.485,-1.015,0.033,7.444,-291.486,80.535
0.493,-1.012,0.041,10.559,-301.662,83.435
0.502,-1.006,0.049,13.672,-308.257,86.069
0.511,-1.000,0.059,16.659,-312.987,88.378
0.519,-0.993,0.068,19.701,-316.710,89.708
0.550,-1.019,-0.077,21.374,-109.298,63.713
0.877,-0.890,0.262,24.404,64.049,61.156
0.719,-0.849,0.414,24.663,87.053,52.686
0.579,-0.816,0.533,25.646,88.516,52.614
0.581,-0.773,0.626,23.617,76.680,52.782
0.568,-0.751,0.660,21.268,59.614,52.164
0.552,-0.748,0.662,18.568,48.350,51.928
0.540,-0.763,0.647,17.374,42.262,51.825
0.530,-0.773,0.624,17.300,37.465,51.684
0.521,-0.777,0.598,17.675,32.494,51.411
0.510,-0.779,0.573,17.602,26.884,50.931
0.496,-0.779,0.548,16.860,20.736,49.961
0.477,-0.779,0.524,14.829,14.751,48.639
0.458,-0.781,0.504,12.105,9.535,46.307
0.443,-0.789,0.487,9.546,5.416,43.295
0.431,-0.801,0.475,7.975,2.479,40.142
0.419,-0.814,0.466,7.361,0.798,37.268
0.410,-0.826,0.460,7.354,0.315,34.833
0.401,-0.835,0.456,7.830,0.324,32.783
0.391,-0.841,0.451,8.511,0.773,30.923
0.381,-0.843,0.447,9.160,1.589,29.162
0.372,-0.843,0.445,9.585,2.582,27.509
0.364,-0.843,0.444,9.642,3.509,25.962
0.357,-0.842,0.444,9.159,4.182,24.544
0.351,-0.841,0.445,8.176,4.559,23.208
0.346,-0.841,0.446,6.730,4.627,21.963
0.342,-0.841,0.445,4.996,4.449,20.791
0.339,-0.843,0.443,3.194,4.151,19.705
0.337,-0.847,0.440,1.540,3.781,18.710
0.335,-0.851,0.436,0.177,3.363,17.835
0.334,-0.857,0.431,-0.811,2.967,17.073
0.333,-0.862,0.426,-1.384,2.645,16.420
0.331,-0.867,0.422,-1.614,2.380,15.853
0.329,-0.871,0.418,-1.562,2.149,15.349
0.326,-0.874,0.415,-1.377,1.935,14.843
0.323,-0.876,0.412,-1.142,1.691,14.322
0.319,-0.878,0.411,-0.908,1.375,13.779
0.315,-0.879,0.410,-0.717,0.953,13.218
0.311,-0.879,0.410,-0.600,0.354,12.651
0.307,-0.879,0.410,-0.556,-0.345,12.075
0.303,-0.878,0.410,-0.592,-1.130,11.504
0.299,-0.877,0.410,-0.684,-1.991,10.925
0.296,-0.876,0.410,-0.794,-2.911,10.345
0.293,-0.876,0.409,-0.919,-3.839,9.789

0.631,-0.952,0.248,8.524,136.842,-5.419
0.862,-0.917,0.506,41.537,229.326,-9.070
0.830,-0.871,0.628,89.006,224.575,1.073
0.714,-0.832,0.693,103.979,215.286,14.700
0.674,-0.763,0.747,101.765,196.153,20.293
0.638,-0.698,0.761,80.184,170.790,20.891
0.611,-0.663,0.757,50.903,148.467,19.869
0.592,-0.660,0.737,26.114,129.573,18.239
0.572,-0.679,0.711,12.158,112.403,16.305
0.556,-0.688,0.680,5.558,96.678,14.033
0.544,-0.683,0.652,1.814,86.531,11.983
0.534,-0.687,0.629,-0.490,77.959,10.329
0.520,-0.697,0.610,-1.867,70.687,8.957
0.511,-0.707,0.595,-2.685,65.177,8.093
0.504,-0.725,0.582,-2.801,61.170,7.588
0.496,-0.746,0.573,-2.183,58.345,7.057
0.488,-0.766,0.564,-0.769,56.221,6.628
0.479,-0.782,0.556,1.110,54.505,6.371
0.470,-0.797,0.546,3.326,52.960,6.152
0.459,-0.808,0.537,5.752,51.597,5.869
0.449,-0.815,0.529,7.921,50.496,5.472
0.440,-0.819,0.523,9.269,49.647,4.932
0.432,-0.820,0.520,9.777,48.950,4.233
0.424,-0.821,0.519,9.647,48.280,3.413
0.418,-0.821,0.519,8.746,47.483,2.500
0.411,-0.821,0.519,7.236,46.521,1.559
0.406,-0.820,0.518,5.312,45.396,0.696
0.401,-0.820,0.516,3.315,44.170,-0.047
0.397,-0.821,0.513,1.663,42.870,-0.641
0.396,-0.824,0.509,0.581,41.575,-1.080
0.395,-0.828,0.503,0.052,40.307,-1.327
0.394,-0.834,0.498,-0.064,39.078,-1.406
0.393,-0.839,0.492,0.172,37.900,-1.343
0.391,-0.843,0.487,0.575,36.774,-1.226
0.389,-0.847,0.483,1.062,35.700,-1.083
0.385,-0.850,0.480,1.566,34.672,-0.929
0.382,-0.854,0.477,2.030,33.683,-0.753
0.378,-0.856,0.475,2.395,32.712,-0.564
0.374,-0.858,0.474,2.664,31.752,-0.361
0.369,-0.860,0.473,2.841,30.793,-0.130
0.363,-0.862,0.472,2.935,29.841,0.130
0.358,-0.863,0.471,2.966,28.904,0.414
0.353,-0.863,0.469,2.975,27.991,0.691
0.348,-0.863,0.467,2.970,27.116,0.943
0.343,-0.863,0.465,2.979,26.282,1.148
0.338,-0.863,0.462,2.983,25.491,1.290
0.334,-0.862,0.459,2.963,24.741,1.355
0.330,-0.861,0.456,2.896,24.025,1.342
0.327,-0.861,0.453,2.771,23.342,1.272
0.324,-0.860,0.450,2.611,22.670,1.163
0.321,-0.861,0.448,2.384,22.005,1.047
0.319,-0.861,0.447,2.222,21.406,1.109
0.318,-0.862,0.445,2.063,20.702,0.926
0.315,-0.862,0.445,1.828,20.016,0.918
0.314,-0.864,0.444,1.588,19.356,0.998
0.313,-0.865,0.444,1.396,18.635,1.022
0.312,-0.865,0.443,1.177,17.862,1.043
0.310,-0.866,0.441,0.976,17.044,1.028
0.308,-0.867,0.440,0.814,16.123,0.984
0.307,-0.868,0.438,0.685,15.172,0.925
0.305,-0.868,0.436,0.583,14.205,0.860
0.304,-0.869,0.435,0.464,13.238,0.816
0.303,-0.869,0.434,0.286,12.255,0.795
0.302,-0.870,0.432,-0.005,11.239,0.828
0.301,-0.871,0.432,-0.372,10.189,0.914
0.301,-0.871,0.431,-0.836,9.105,1.054
0.300,-0.872,0.431,-1.404,7.998,1.267
0.300,-0.873,0.430,-2.041,6.876,1.548
0.300,-0.875,0.430,-2.733,5.778,1.874
0.299,-0.875,0.429,-3.443,4.694,2.249
0.298,-0.876,0.427,-4.175,3.610,2.644
0.298,-0.876,0.426,-4.896,2.533,2.991
0.297,-0.876,0.424,-5.560,1.447,3.325
0.297,-0.877,0.423,-6.139,0.364,3.621
0.296,-0.876,0.422,-6.592,-0.711,3.880
0.295,-0.876,0.422,-7.033,-1.810,4.120
0.294,-0.875,0.422,-7.510,-2.939,4.331
0.293,-0.874,0.423,-8.021,-4.061,4.441
0.292,-0.873,0.424,-8.523,-5.108,4.453
0.291,-0.872,0.425,-8.986,-6.098,4.393
0.291,-0.870,0.427,-9.450,-6.999,4.233
0.291,-0.868,0.429,-9.850,-7.870,4.011
0.290,-0.866,0.429,-10.294,-8.327,3.747
0.291,-0.865,0.429,-10.658,-8.483,3.408
0.292,-0.864,0.428,-10.980,-8.382,3.026
0.294,-0.863,0.427,-11.317,-8.027,2.640
0.294,-0.864,0.425,-11.576,-7.591,2.184
0.295,-0.866,0.422,-11.785,-7.180,1.662
0.296,-0.868,0.420,-11.882,-6.812,1.068
0.297,-0.869,0.417,-11.929,-6.410,0.411
0.298,-0.871,0.413,-11.993,-5.989,-0.335
0.299,-0.874,0.410,-12.066,-5.576,-1.189
0.300,-0.877,0.406,-12.181,-5.183,-2.218
0.301,-0.880,0.403,-12.296,-4.825,-3.338
0.302,-0.884,0.400,-12.430,-4.479,-4.472
0.304,-0.887,0.396,-12.611,-4.141,-5.568
0.306,-0.891,0.394,-12.841,-3.794,-6.572
0.308,-0.894,0.392,-13.118,-3.400,-7.446
0.309,-0.896,0.389,-13.448,-2.888,-8.200
0.311,-0.896,0.388,-13.856,-2.099,-8.827
0.312,-0.895,0.385,-14.268,-1.046,-9.411
0.312,-0.895,0.383,-14.584,0.134,-10.042
0.312,-0.898,0.382,-14.660,1.305,-10.629
0.313,-0.900,0.381,-14.565,2.418,-11.069
0.314,-0.901,0.380,-14.453,3.685,-11.408
0.315,-0.902,0.379,-14.330,4.999,-11.710
0.315,-0.903,0.379,-14.187,6.379,-11.975
0.316,-0.904,0.379,-14.038,7.849,-12.161
0.318,-0.904,0.378,-13.951,9.556,-12.316
0.319,-0.902,0.378,-13.950,11.578,-12.487
0.320,-0.901,0.378,-14.016,13.825,-12.684
0.321,-0.901,0.377,-14.126,16.228,-12.887
0.321,-0.900,0.376,-14.273,18.669,-13.076
0.322,-0.900,0.375,-14.429,21.093,-13.257
0.323,-0.900,0.373,-14.605,23.425,-13.422
0.324,-0.900,0.372,-14.805,25.598,-13.572
0.324,-0.901,0.371,-14.997,27.596,-13.713
0.325,-0.902,0.369,-15.201,29.464,-13.866
0.325,-0.903,0.368,-15.385,31.241,-14.027

1.083,-0.957,0.282,33.091,167.169,-20.593
0.998,-0.958,0.430,91.945,174.550,-15.142
0.919,-0.859,0.518,101.862,169.198,0.224
0.858,-0.770,0.583,99.173,152.458,4.503
0.816,-0.734,0.609,74.766,134.027,4.832
0.787,-0.712,0.613,46.000,116.986,3.766
0.765,-0.715,0.603,24.087,103.414,2.868
0.740,-0.728,0.585,12.601,91.558,2.010
0.719,-0.724,0.560,6.043,82.130,0.833
0.701,-0.719,0.536,1.150,72.974,-0.243
0.682,-0.724,0.513,-1.907,65.170,-1.525
0.664,-0.733,0.495,-3.492,59.063,-2.834
0.647,-0.744,0.481,-4.124,54.339,-3.786
0.632,-0.757,0.471,-3.868,50.794,-4.285
0.618,-0.773,0.466,-2.960,48.171,-4.549
0.605,-0.790,0.462,-1.460,46.152,-4.594
0.592,-0.804,0.459,0.423,44.658,-4.564
0.578,-0.817,0.456,2.597,43.425,-4.608
0.561,-0.825,0.452,4.799,42.366,-4.806
0.546,-0.830,0.449,6.524,41.498,-5.147
0.531,-0.833,0.447,7.439,40.799,-5.586
0.519,-0.834,0.448,7.377,40.184,-6.160
0.508,-0.835,0.449,6.687,39.522,-6.849
0.497,-0.834,0.451,5.269,38.718,-7.651
0.486,-0.834,0.452,3.208,37.735,-8.525
0.478,-0.834,0.452,0.853,36.689,-9.353
0.471,-0.835,0.450,-1.269,35.626,-10.043
0.465,-0.837,0.447,-2.816,34.558,-10.537
0.461,-0.841,0.444,-3.457,33.504,-10.736
0.457,-0.846,0.441,-3.589,32.483,-10.702
0.454,-0.851,0.438,-3.380,31.534,-10.476
0.451,-0.856,0.435,-2.877,30.649,-10.030
0.447,-0.861,0.434,-2.170,29.818,-9.416
0.442,-0.865,0.432,-1.409,29.029,-8.696
0.436,-0.868,0.432,-0.736,28.257,-7.954
0.430,-0.870,0.432,-0.222,27.475,-7.229
0.423,-0.871,0.433,0.126,26.648,-6.545
0.416,-0.872,0.434,0.315,25.781,-5.922
0.408,-0.872,0.435,0.363,24.794,-5.366
0.400,-0.872,0.436,0.275,23.709,-4.891
0.393,-0.872,0.436,0.089,22.534,-4.477
0.385,-0.871,0.436,-0.185,21.294,-4.131
0.378,-0.870,0.436,-0.530,20.004,-3.848
0.371,-0.869,0.434,-0.900,18.728,-3.611
0.365,-0.868,0.431,-1.268,17.489,-3.458
0.360,-0.867,0.427,-1.657,16.328,-3.290
0.357,-0.867,0.423,-1.888,15.350,-2.914
0.353,-0.868,0.418,-2.020,14.392,-2.942
0.348,-0.867,0.415,-2.154,13.412,-2.975
0.345,-0.867,0.412,-2.352,12.641,-2.733
0.343,-0.870,0.410,-2.460,11.843,-2.517
0.339,-0.870,0.409,-2.471,10.927,-2.512
0.334,-0.871,0.408,-2.477,10.005,-2.494
0.331,-0.873,0.408,-2.415,9.086,-2.477
0.327,-0.874,0.409,-2.322,8.136,-2.482
0.323,-0.875,0.408,-2.260,7.182,-2.506
0.318,-0.875,0.408,-2.281,6.249,-2.532
0.314,-0.877,0.407,-2.409,5.355,-2.576
0.310,-0.878,0.405,-2.593,4.530,-2.637
0.307,-0.881,0.402,-2.785,3.793,-2.706
0.304,-0.883,0.398,-2.957,3.191,-2.760
0.302,-0.886,0.395,-3.094,2.691,-2.775
0.300,-0.890,0.391,-3.187,2.287,-2.723
0.299,-0.893,0.389,-3.227,1.963,-2.633
0.297,-0.896,0.386,-3.240,1.703,-2.529
0.295,-0.898,0.385,-3.227,1.490,-2.421
0.293,-0.900,0.384,-3.199,1.293,-2.311
0.291,-0.902,0.384,-3.152,1.106,-2.206
0.289,-0.903,0.384,-3.080,0.926,-2.093
0.287,-0.903,0.384,-2.976,0.741,-1.976
0.285,-0.904,0.384,-2.842,0.529,-1.855
0.283,-0.904,0.385,-2.675,0.279,-1.737
0.281,-0.904,0.385,-2.498,-0.019,-1.622
0.279,-0.904,0.387,-2.330,-0.374,-1.510
0.277,-0.904,0.388,-2.189,-0.791,-1.405
0.275,-0.904,0.390,-2.092,-1.982,-1.299
0.275,-0.904,0.393,-2.036,-2.550,-1.198
0.274,-0.903,0.395,-2.030,-3.183,-1.086
0.272,-0.903,0.398,-2.072,-3.893,-0.973
0.271,-0.901,0.401,-2.183,-4.668,-0.849
0.270,-0.900,0.405,-2.360,-5.521,-0.730
0.269,-0.898,0.409,-2.581,-6.395,-0.623
0.268,-0.896,0.413,-2.910,-7.266,-0.561
0.267,-0.893,0.416,-3.348,-8.098,-0.563
0.267,-0.891,0.419,-3.804,-8.920,-0.645
0.266,-0.888,0.421,-4.259,-9.704,-0.800
0.266,-0.886,0.422,-4.636,-10.438,-1.034
0.266,-0.883,0.424,-4.923,-11.204,-1.340
0.266,-0.881,0.424,-5.296,-11.818,-1.682
0.267,-0.881,0.425,-5.651,-12.285,-2.069
0.269,-0.881,0.425,-6.035,-12.566,-2.441
0.272,-0.880,0.426,-6.461,-12.631,-2.872
0.275,-0.879,0.427,-6.811,-12.550,-3.341
0.277,-0.878,0.428,-7.158,-12.344,-3.794
0.279,-0.877,0.428,-7.578,-11.995,-4.248
0.281,-0.877,0.428,-8.091,-11.530,-4.737
0.283,-0.877,0.426,-8.639,-10.980,-5.303
0.285,-0.879,0.424,-9.138,-10.407,-5.911
0.288,-0.881,0.421,-9.658,-9.748,-6.564
0.291,-0.883,0.417,-10.129,-8.958,-7.236
0.294,-0.885,0.412,-10.586,-8.025,-7.900
0.298,-0.885,0.407,-11.025,-6.899,-8.572
0.301,-0.885,0.402,-11.400,-5.523,-9.221
0.305,-0.884,0.398,-11.720,-3.909,-9.843
0.307,-0.884,0.396,-11.985,-2.075,-10.431
0.309,-0.884,0.394,-12.154,-0.171,-10.991
0.311,-0.884,0.394,-12.225,1.805,-11.516
0.313,-0.884,0.394,-12.126,3.803,-12.036
0.314,-0.884,0.396,-11.949,5.847,-12.556
0.316,-0.884,0.398,-11.711,8.112,-13.090
0.318,-0.885,0.400,-11.413,10.594,-13.638
0.320,-0.885,0.403,-11.589,13.364,-14.190
0.323,-0.884,0.405,-11.397,16.465,-14.722
0.324,-0.882,0.408,-11.366,19.917,-15.264
0.326,-0.880,0.410,-11.540,23.711,-15.828
0.327,-0.878,0.412,-11.894,27.554,-16.428
0.329,-0.878,0.414,-12.396,31.338,-17.060
0.330,-0.877,0.417,-13.105,34.956,-17.702
0.332,-0.877,0.419,-13.933,38.305,-18.332

0.783,-1.117,0.668,-1.639,240.117,-18.437
0.865,-1.061,0.804,4.151,251.893,-16.489
0.686,-1.071,0.862,17.481,244.320,-9.854
0.647,-1.025,0.900,18.460,235.978,1.217
0.606,-1.009,0.919,17.521,205.100,4.454
0.583,-0.968,0.920,13.029,173.327,5.676
0.574,-0.927,0.901,2.822,148.879,6.170
0.563,-0.914,0.872,-7.529,132.547,5.943
0.544,-0.920,0.846,-10.540,123.069,5.365
0.533,-0.926,0.825,-10.910,116.152,5.224
0.523,-0.929,0.806,-10.616,108.944,5.297
0.512,-0.924,0.789,-10.065,101.448,5.248
0.496,-0.919,0.772,-9.694,94.481,5.119
0.483,-0.917,0.757,-9.600,88.314,4.964
0.474,-0.917,0.744,-9.755,82.946,4.773
0.466,-0.921,0.730,-10.099,78.365,4.490
0.456,-0.930,0.716,-10.217,74.525,4.168
0.446,-0.940,0.702,-9.901,71.389,3.888
0.437,-0.948,0.688,-8.956,68.988,3.631
0.427,-0.951,0.673,-7.515,67.114,3.353
0.416,-0.950,0.659,-6.056,65.387,3.003
0.406,-0.946,0.649,-5.065,63.782,2.542
0.397,-0.942,0.641,-4.918,62.230,1.938
0.389,-0.938,0.634,-5.290,60.686,1.277
0.382,-0.934,0.629,-6.165,59.129,0.584
0.376,-0.931,0.624,-7.410,57.553,-0.114
0.372,-0.929,0.618,-8.759,55.958,-0.742
0.368,-0.928,0.611,-9.996,54.381,-1.277
0.365,-0.928,0.604,-10.999,52.780,-1.675
0.363,-0.930,0.596,-11.607,51.202,-1.898
0.361,-0.931,0.587,-11.908,49.665,-2.009
0.359,-0.934,0.579,-11.949,48.211,-2.037
0.357,-0.936,0.571,-11.793,46.836,-1.998
0.355,-0.937,0.564,-11.481,45.497,-1.921
0.352,-0.939,0.558,-11.063,44.168,-1.841
0.349,-0.939,0.552,-10.550,42.806,-1.768
0.346,-0.938,0.547,-10.037,41.381,-1.681
0.342,-0.938,0.543,-9.602,39.899,-1.547
0.338,-0.937,0.539,-9.279,38.375,-1.342
0.334,-0.935,0.535,-9.051,36.809,-1.069
0.329,-0.933,0.531,-8.903,35.191,-0.748
0.325,-0.931,0.527,-8.827,33.547,-0.417
0.320,-0.929,0.524,-8.803,31.886,-0.092
0.316,-0.927,0.520,-8.826,30.217,0.224
0.312,-0.925,0.516,-8.872,28.552,0.498
0.309,-0.923,0.511,-8.977,26.897,0.696
0.306,-0.922,0.507,-9.161,25.237,0.781
0.303,-0.920,0.502,-9.487,23.590,0.779
0.300,-0.918,0.498,-9.917,21.946,0.707
0.298,-0.916,0.493,-10.462,20.318,0.642
0.296,-0.914,0.489,-10.934,18.864,0.740
0.295,-0.913,0.485,-11.445,17.274,0.642
0.293,-0.909,0.482,-11.963,15.564,0.360
0.291,-0.907,0.479,-12.668,14.027,0.413
0.289,-0.907,0.476,-13.406,12.482,0.586
0.287,-0.907,0.474,-13.923,10.827,0.543
0.286,-0.905,0.472,-14.367,9.199,0.472
0.284,-0.905,0.469,-14.708,7.507,0.358
0.281,-0.905,0.468,-14.879,5.705,0.152
0.280,-0.905,0.464,-14.944,4.062,-0.146
0.278,-0.906,0.461,-14.975,2.546,-0.427
0.276,-0.908,0.457,-15.004,1.155,-0.699
0.274,-0.910,0.452,-15.001,-0.109,-0.962
0.273,-0.911,0.446,-15.003,-1.067,-1.132
0.273,-0.913,0.440,-14.972,-1.767,-1.216
0.272,-0.916,0.433,-14.900,-2.265,-1.230
0.273,-0.918,0.427,-14.765,-2.586,-1.144
0.273,-0.921,0.421,-14.602,-2.755,-0.957
0.273,-0.923,0.416,-14.370,-2.844,-0.686
0.272,-0.925,0.413,-14.118,-2.987,-0.392
0.270,-0.926,0.410,-13.868,-3.215,-0.122
0.268,-0.926,0.409,-13.621,-3.544,0.055
0.266,-0.927,0.407,-13.365,-3.922,0.124
0.264,-0.927,0.407,-13.097,-4.253,0.079
0.263,-0.927,0.406,-12.781,-4.494,-0.079
0.262,-0.927,0.404,-12.364,-4.633,-0.402
0.262,-0.926,0.401,-11.875,-4.638,-0.833
0.261,-0.926,0.397,-11.387,-4.455,-1.311
0.262,-0.926,0.394,-10.924,-4.135,-1.807
0.262,-0.926,0.390,-10.470,-3.721,-2.307
0.263,-0.927,0.387,-10.037,-3.251,-2.804
0.263,-0.927,0.385,-9.632,-2.760,-3.272
0.264,-0.927,0.383,-9.306,-2.305,-3.701
0.264,-0.926,0.384,-9.077,-1.908,-4.112
0.265,-0.925,0.386,-8.923,-1.582,-4.534
0.265,-0.924,0.388,-8.862,-1.365,-4.976
0.266,-0.923,0.390,-8.893,-1.253,-5.428
0.267,-0.923,0.391,-9.020,-1.236,-5.909
0.269,-0.924,0.391,-9.189,-1.257,-6.456
0.272,-0.925,0.388,-9.456,-1.213,-7.051
0.276,-0.927,0.385,-9.824,-1.007,-7.611
0.280,-0.927,0.381,-10.254,-0.532,-8.122
0.283,-0.926,0.378,-10.676,0.307,-8.619
0.285,-0.926,0.377,-11.011,1.325,-9.105
0.286,-0.925,0.375,-11.315,2.526,-9.535
0.288,-0.922,0.376,-11.679,3.859,-9.926
0.289,-0.919,0.377,-12.100,5.285,-10.350
0.290,-0.917,0.380,-12.493,6.773,-10.842
0.291,-0.917,0.384,-12.876,8.304,-11.359
0.293,-0.915,0.387,-13.262,9.897,-11.816
0.295,-0.912,0.391,-13.763,11.712,-12.296
0.296,-0.910,0.396,-14.268,13.726,-12.891
0.298,-0.909,0.399,-14.725,15.900,-13.541
0.300,-0.908,0.403,-15.186,18.347,-14.160
0.302,-0.906,0.406,-15.726,21.056,-14.724
0.305,-0.904,0.409,-16.433,24.046,-15.226
0.308,-0.901,0.411,-17.526,27.338,-15.692
0.310,-0.899,0.413,-18.842,30.837,-16.156
0.313,-0.899,0.415,-20.204,34.394,-16.630
0.316,-0.900,0.417,-21.455,38.058,-17.123
0.319,-0.901,0.419,-22.505,41.692,-17.637
0.323,-0.903,0.420,-23.306,45.305,-18.169
0.327,-0.906,0.420,-23.834,49.048,-18.672
0.332,-0.908,0.420,-24.198,52.977,-19.135
0.337,-0.911,0.420,-24.457,57.344,-19.547
0.341,-0.914,0.419,-24.627,61.988,-19.875
0.346,-0.916,0.418,-24.735,66.882,-20.132
0.350,-0.918,0.416,-24.799,71.982,-20.312
0.353,-0.919,0.415,-24.864,77.180,-20.416

0.747,-0.920,0.567,-24.511,178.717,-22.874
0.751,-0.843,0.664,-24.954,176.636,-23.145
0.648,-0.903,0.707,-14.884,171.330,-20.345
0.601,-0.907,0.733,-8.852,165.156,-12.837
0.562,-0.891,0.758,-7.718,147.605,-10.961
0.539,-0.855,0.761,-9.337,124.547,-9.106
0.524,-0.837,0.744,-13.854,102.157,-6.772
0.516,-0.844,0.711,-17.607,88.578,-5.241
0.503,-0.853,0.677,-18.944,80.072,-5.088
0.487,-0.860,0.648,-19.044,73.784,-5.330
0.475,-0.856,0.626,-18.800,68.762,-5.706
0.467,-0.854,0.609,-18.610,64.782,-6.210
0.456,-0.858,0.596,-18.425,61.985,-6.781
0.448,-0.865,0.586,-18.153,59.638,-7.352
0.442,-0.873,0.578,-17.840,57.569,-7.795
0.435,-0.881,0.570,-17.427,55.788,-7.976
0.426,-0.888,0.560,-16.803,54.275,-7.959
0.417,-0.892,0.549,-15.945,52.862,-7.831
0.409,-0.893,0.538,-14.962,51.581,-7.694
0.401,-0.892,0.527,-14.050,50.363,-7.642
0.393,-0.890,0.518,-13.425,49.156,-7.724
0.386,-0.888,0.511,-13.297,47.923,-7.873
0.379,-0.886,0.505,-13.549,46.662,-8.084
0.374,-0.887,0.499,-14.107,45.387,-8.342
0.370,-0.889,0.493,-14.736,44.030,-8.612
0.367,-0.893,0.487,-15.224,42.601,-8.828
0.366,-0.898,0.481,-15.492,41.109,-8.933
0.365,-0.903,0.474,-15.441,39.578,-8.945
0.365,-0.908,0.467,-15.187,38.044,-8.871
0.364,-0.912,0.460,-14.724,36.597,-8.698
0.364,-0.916,0.453,-14.077,35.248,-8.408
0.363,-0.919,0.447,-13.296,33.968,-8.002
0.361,-0.920,0.442,-12.497,32.714,-7.482
0.359,-0.920,0.437,-11.800,31.439,-6.923
0.356,-0.920,0.433,-11.231,30.105,-6.350
0.353,-0.919,0.428,-10.803,28.650,-5.788
0.349,-0.918,0.424,-10.506,27.134,-5.247
0.345,-0.917,0.420,-10.309,25.601,-4.736
0.341,-0.916,0.415,-10.155,24.071,-4.257
0.337,-0.916,0.410,-10.009,22.573,-3.803
0.333,-0.915,0.405,-9.872,21.129,-3.391
0.330,-0.914,0.401,-9.761,19.740,-3.047
0.326,-0.913,0.396,-9.680,18.401,-2.824
0.323,-0.911,0.392,-9.636,17.104,-2.684
0.320,-0.910,0.388,-9.631,15.833,-2.599
0.318,-0.908,0.384,-9.666,14.584,-2.581
0.316,-0.907,0.380,-9.755,13.378,-2.530
0.315,-0.906,0.377,-9.830,12.222,-2.406
0.313,-0.907,0.374,-9.915,11.027,-2.425
0.311,-0.904,0.372,-10.045,9.710,-2.442
0.310,-0.903,0.370,-10.293,8.395,-2.259
0.308,-0.903,0.369,-10.484,7.000,-2.164
0.306,-0.902,0.368,-10.557,5.520,-2.142
0.304,-0.901,0.367,-10.598,3.958,-2.170
0.303,-0.900,0.366,-10.552,2.345,-2.279
0.302,-0.900,0.364,-10.470,0.739,-2.463
0.301,-0.900,0.363,-10.392,-0.794,-2.708
0.300,-0.900,0.360,-10.268,-2.195,-2.991
0.298,-0.901,0.357,-10.181,-3.423,-3.284
0.296,-0.902,0.353,-10.125,-4.436,-3.650
0.295,-0.905,0.348,-10.184,-5.244,-4.010
0.295,-0.907,0.344,-10.269,-5.867,-4.301
0.295,-0.909,0.340,-10.420,-6.262,-4.517
0.296,-0.912,0.336,-10.565,-6.508,-4.677
0.296,-0.916,0.332,-10.699,-6.633,-4.750
0.296,-0.920,0.328,-10.750,-6.727,-4.752
0.296,-0.924,0.324,-10.730,-6.798,-4.729
0.295,-0.926,0.320,-10.645,-6.856,-4.724
0.293,-0.928,0.316,-10.490,-6.869,-4.779
0.293,-0.929,0.312,-10.283,-6.835,-4.913
0.292,-0.931,0.308,-10.082,-6.739,-5.112
0.292,-0.931,0.304,-9.945,-6.555,-5.382
0.291,-0.931,0.301,-9.843,-6.312,-5.721
0.291,-0.931,0.298,-9.797,-5.985,-6.159
0.291,-0.931,0.296,-9.790,-5.609,-6.639
0.291,-0.931,0.294,-9.762,-5.225,-7.149
0.292,-0.932,0.293,-9.698,-4.874,-7.648
0.292,-0.932,0.293,-9.603,-4.548,-8.083
0.293,-0.933,0.293,-9.488,-4.246,-8.413
0.294,-0.933,0.295,-9.378,-4.003,-8.680
0.295,-0.933,0.298,-9.309,-3.801,-8.892
0.297,-0.933,0.300,-9.242,-3.638,-9.086
0.298,-0.932,0.303,-9.169,-3.506,-9.290
0.300,-0.932,0.304,-9.083,-3.378,-9.521
0.303,-0.933,0.303,-8.999,-3.214,-9.757
0.305,-0.933,0.302,-8.926,-2.914,-9.977
0.308,-0.933,0.302,-8.871,-2.470,-10.195
0.311,-0.933,0.302,-8.851,-1.838,-10.415
0.314,-0.933,0.303,-8.909,-0.994,-10.640
0.316,-0.932,0.306,-9.065,0.164,-10.871
0.318,-0.930,0.310,-9.344,1.520,-11.128
0.320,-0.929,0.314,-9.760,3.048,-11.433
0.323,-0.927,0.320,-10.282,4.733,-11.823
0.325,-0.925,0.325,-10.916,6.564,-12.243
0.327,-0.923,0.330,-11.573,8.555,-12.677
0.330,-0.922,0.334,-12.220,10.798,-13.123
0.332,-0.920,0.337,-12.753,13.240,-13.570
0.335,-0.919,0.337,-13.183,15.911,-13.989
0.338,-0.919,0.337,-13.497,18.814,-14.340
0.341,-0.919,0.336,-13.740,21.932,-14.661
0.344,-0.919,0.335,-13.992,26.818,-14.953
0.347,-0.919,0.335,-14.198,30.705,-15.253
0.350,-0.918,0.336,-14.473,34.939,-15.590
0.353,-0.918,0.338,-14.746,39.361,-15.976
0.355,-0.918,0.339,-15.054,43.874,-16.387
0.357,-0.917,0.341,-15.411,48.346,-16.803
0.360,-0.917,0.343,-15.809,52.723,-17.218
0.362,-0.917,0.344,-16.257,56.963,-17.635
0.364,-0.917,0.344,-16.754,61.112,-18.038
0.367,-0.918,0.344,-17.282,65.196,-18.417
0.369,-0.919,0.342,-17.773,69.247,-18.778
0.371,-0.920,0.339,-18.196,73.351,-19.101
0.374,-0.922,0.336,-18.498,77.428,-19.386
0.376,-0.924,0.334,-18.702,81.460,-19.630
0.379,-0.926,0.331,-18.824,85.395,-19.799
0.381,-0.928,0.329,-18.894,89.213,-19.902
0.382,-0.930,0.327,-18.926,92.914,-19.956
0.384,-0.931,0.324,-18.935,96.540,-19.964
0.386,-0.933,0.321,-18.938,100.053,-19.932

0.660,-0.980,0.221,-13.085,51.057,-11.879
0.663,-0.977,0.225,-7.267,12.836,-11.337
0.763,-0.965,0.328,34.281,209.903,-32.000
0.830,-0.942,0.520,74.531,241.537,-27.718
0.744,-0.887,0.624,91.929,234.420,-8.957
0.697,-0.793,0.693,90.558,212.543,3.742
0.657,-0.752,0.729,84.538,186.928,9.398
0.630,-0.730,0.744,70.974,164.397,10.638
0.616,-0.711,0.735,50.018,143.937,10.341
0.601,-0.724,0.711,34.508,126.100,8.895
0.588,-0.734,0.678,25.519,111.846,6.946
0.576,-0.734,0.643,20.003,101.189,5.266
0.566,-0.742,0.609,16.658,91.864,3.921
0.556,-0.754,0.579,14.683,84.544,2.750
0.548,-0.763,0.556,13.420,79.120,1.929
0.537,-0.774,0.536,12.861,74.931,1.291
0.525,-0.790,0.521,12.897,72.153,0.660
0.515,-0.806,0.511,13.648,70.277,0.091
0.505,-0.820,0.504,14.946,68.561,-0.276
0.494,-0.831,0.500,16.637,66.987,-0.416
0.480,-0.836,0.495,18.285,65.543,-0.534
0.466,-0.838,0.491,19.478,64.244,-0.714
0.455,-0.837,0.487,19.993,63.057,-0.975
0.446,-0.836,0.485,19.881,61.898,-1.283
0.439,-0.835,0.483,19.328,60.708,-1.610
0.432,-0.836,0.480,18.319,59.457,-1.947
0.426,-0.836,0.478,16.802,58.135,-2.337
0.421,-0.835,0.475,14.798,56.745,-2.730
0.416,-0.835,0.473,12.719,55.303,-3.114
0.412,-0.836,0.470,10.852,53.797,-3.427
0.409,-0.839,0.467,9.401,52.024,-3.645
0.407,-0.842,0.464,8.333,50.118,-3.743
0.405,-0.846,0.460,7.593,48.129,-3.744
0.402,-0.850,0.456,7.114,46.126,-3.663
0.400,-0.854,0.452,6.855,44.163,-3.486
0.397,-0.859,0.448,6.711,42.260,-3.242
0.394,-0.863,0.445,6.661,40.427,-2.943
0.391,-0.867,0.441,6.675,38.670,-2.612
0.386,-0.870,0.438,6.712,36.947,-2.269
0.382,-0.873,0.435,6.716,35.233,-1.937
0.377,-0.874,0.433,6.660,33.522,-1.608
0.371,-0.875,0.431,6.550,31.848,-1.273
0.365,-0.876,0.429,6.395,30.187,-0.931
0.360,-0.876,0.428,6.205,28.565,-0.590
0.354,-0.876,0.426,6.003,26.994,-0.278
0.349,-0.875,0.425,5.780,25.444,-0.007
0.344,-0.874,0.424,5.495,23.858,0.176
0.340,-0.873,0.423,5.123,22.265,0.255
0.336,-0.872,0.421,4.591,20.630,0.309
0.332,-0.871,0.420,3.970,18.958,0.354
0.329,-0.872,0.419,3.190,17.424,0.414
0.327,-0.870,0.417,2.432,15.658,0.175
0.324,-0.869,0.416,1.455,14.027,0.124
0.323,-0.871,0.415,0.318,12.467,0.282
0.322,-0.873,0.413,-0.687,10.890,0.376
0.321,-0.874,0.412,-1.652,9.304,0.489
0.319,-0.874,0.411,-2.614,7.689,0.555
0.318,-0.875,0.409,-3.484,6.094,0.559
0.317,-0.875,0.408,-4.268,4.553,0.500
0.316,-0.874,0.407,-5.044,2.993,0.406
0.314,-0.874,0.407,-5.861,1.365,0.283
0.312,-0.873,0.406,-6.700,-0.337,0.151
0.311,-0.874,0.405,-7.595,-1.924,-0.079
0.310,-0.874,0.405,-8.500,-3.412,-0.379
0.309,-0.875,0.404,-9.395,-4.847,-0.618
0.308,-0.876,0.403,-10.135,-5.895,-0.761
0.310,-0.878,0.400,-10.791,-6.483,-0.803
0.313,-0.881,0.397,-11.193,-6.678,-0.718
0.315,-0.883,0.394,-11.446,-6.620,-0.525
0.317,-0.885,0.390,-11.607,-6.280,-0.208
0.319,-0.887,0.385,-11.684,-5.804,0.141
0.320,-0.889,0.379,-11.696,-5.215,0.388
0.321,-0.891,0.374,-11.662,-4.519,0.425
0.323,-0.892,0.369,-11.610,-3.745,0.307
0.324,-0.893,0.365,-11.549,-2.948,0.009
0.325,-0.893,0.364,-11.437,-2.222,-0.454
0.326,-0.893,0.364,-11.324,-1.517,-1.028
0.326,-0.893,0.365,-11.193,-0.783,-1.701
0.326,-0.891,0.368,-11.023,0.029,-2.456
0.326,-0.890,0.370,-10.892,1.004,-3.224
0.327,-0.889,0.373,-10.832,2.190,-3.987
0.327,-0.889,0.376,-10.832,3.680,-4.731
0.328,-0.889,0.378,-10.905,5.348,-5.480
0.329,-0.890,0.381,-11.028,7.087,-6.236
0.330,-0.892,0.383,-11.157,8.882,-7.000
0.331,-0.894,0.384,-11.229,10.763,-7.772
0.332,-0.896,0.386,-11.179,12.618,-8.599
0.334,-0.899,0.387,-11.054,14.451,-9.414
0.335,-0.900,0.389,-10.909,16.322,-10.225
0.337,-0.901,0.391,-10.832,18.338,-11.060
0.340,-0.901,0.394,-10.827,20.558,-11.934
0.342,-0.900,0.398,-10.882,23.184,-12.852
0.344,-0.899,0.401,-11.017,26.157,-13.808
0.347,-0.898,0.405,-11.259,29.442,-14.769
0.349,-0.896,0.408,-11.687,32.878,-15.708
0.351,-0.895,0.411,-12.254,36.427,-16.639
0.354,-0.895,0.414,-12.897,40.288,-17.536
0.356,-0.894,0.416,-13.590,44.331,-18.400
0.359,-0.894,0.418,-14.285,48.465,-19.195
0.362,-0.894,0.420,-15.001,52.794,-19.964
0.365,-0.895,0.421,-15.653,57.279,-20.722
0.368,-0.896,0.421,-16.187,62.074,-21.468
0.371,-0.898,0.420,-16.601,67.093,-22.174
0.375,-0.900,0.419,-16.897,72.384,-22.848
0.378,-0.902,0.417,-17.056,77.893,-23.488
0.381,-0.904,0.415,-17.127,83.662,-24.076
0.385,-0.907,0.414,-17.169,89.792,-24.597
0.388,-0.909,0.412,-17.205,95.876,-25.048
0.390,-0.910,0.411,-17.278,101.768,-25.448
0.392,-0.912,0.410,-17.437,107.334,-25.789
0.394,-0.913,0.408,-17.647,112.509,-26.091
0.396,-0.915,0.407,-17.879,117.251,-26.331
0.398,-0.917,0.404,-18.086,121.619,-26.527
0.399,-0.919,0.401,-18.239,125.694,-26.670
0.401,-0.922,0.397,-18.314,129.531,-26.739
0.402,-0.924,0.392,-18.341,133.208,-26.753
0.404,-0.927,0.386,-18.345,136.852,-26.735
0.405,-0.930,0.382,-18.321,140.657,-26.690
0.406,-0.933,0.376,-18.242,144.561,-26.639

0.594,-0.906,0.358,-11.955,90.922,-19.076
0.596,-0.901,0.366,-6.360,44.929,-12.302
0.598,-0.897,0.374,-1.195,5.288,-6.285
0.600,-0.909,0.363,8.431,-26.719,-3.118
0.710,-0.916,0.514,24.641,161.727,-12.850
0.800,-0.826,0.677,39.104,210.067,-12.383
0.687,-0.819,0.765,49.536,208.085,-10.745
0.595,-0.768,0.839,52.839,201.821,-5.833
0.573,-0.727,0.899,51.420,187.942,-1.225
0.559,-0.706,0.932,46.672,169.484,1.853
0.541,-0.687,0.936,38.020,150.059,3.374
0.521,-0.672,0.922,26.830,132.202,3.765
0.503,-0.666,0.897,16.846,116.578,3.592
0.488,-0.669,0.867,9.801,101.778,3.207
0.477,-0.675,0.835,5.154,88.253,2.873
0.467,-0.682,0.805,2.102,76.510,2.689
0.457,-0.687,0.776,-0.435,66.304,2.434
0.446,-0.695,0.748,-2.523,57.841,2.061
0.436,-0.707,0.723,-3.704,51.445,1.554
0.428,-0.723,0.703,-3.841,47.636,0.967
0.421,-0.741,0.689,-3.057,45.187,0.468
0.414,-0.757,0.677,-1.237,43.658,0.133
0.407,-0.770,0.669,1.207,42.620,-0.084
0.398,-0.779,0.661,3.589,41.769,-0.234
0.388,-0.784,0.653,5.450,41.084,-0.367
0.379,-0.787,0.645,6.612,40.528,-0.521
0.371,-0.788,0.639,7.072,40.068,-0.754
0.364,-0.788,0.633,6.944,39.614,-1.110
0.358,-0.787,0.628,6.221,39.092,-1.603
0.353,-0.787,0.624,4.727,38.454,-2.230
0.349,-0.786,0.620,2.238,37.688,-3.006
0.345,-0.786,0.616,-0.578,36.814,-3.815
0.341,-0.789,0.612,-3.172,35.768,-4.590
0.339,-0.793,0.607,-5.151,34.491,-5.241
0.338,-0.799,0.601,-6.398,33.161,-5.664
0.337,-0.806,0.596,-6.780,31.862,-5.736
0.337,-0.812,0.591,-6.730,30.645,-5.575
0.336,-0.818,0.586,-6.336,29.559,-5.199
0.335,-0.823,0.581,-5.671,28.591,-4.672
0.333,-0.826,0.577,-4.928,27.669,-4.074
0.329,-0.829,0.573,-4.301,26.746,-3.476
0.325,-0.830,0.569,-3.918,25.792,-2.936
0.321,-0.830,0.565,-3.715,24.773,-2.481
0.316,-0.830,0.562,-3.668,23.646,-2.108
0.311,-0.831,0.558,-3.720,22.436,-1.809
0.306,-0.831,0.555,-3.837,21.166,-1.570
0.301,-0.832,0.552,-4.016,19.872,-1.390
0.296,-0.832,0.550,-4.251,18.532,-1.267
0.291,-0.832,0.547,-4.595,17.166,-1.152
0.287,-0.832,0.544,-4.979,15.798,-1.019
0.284,-0.833,0.541,-5.492,14.398,-0.951
0.280,-0.832,0.538,-6.058,12.975,-1.069
0.277,-0.832,0.534,-6.775,11.722,-1.023
0.275,-0.834,0.529,-7.334,10.646,-1.016
0.273,-0.834,0.524,-7.715,9.649,-1.039
0.270,-0.833,0.519,-8.091,8.650,-1.113
0.268,-0.834,0.513,-7.892,7.654,-1.274
0.266,-0.835,0.508,-8.042,6.708,-1.442
0.264,-0.837,0.504,-8.114,5.822,-1.596
0.263,-0.838,0.500,-8.169,4.934,-1.757
0.261,-0.840,0.496,-8.257,4.008,-1.963
0.260,-0.841,0.494,-8.368,3.031,-2.254
0.259,-0.842,0.492,-8.526,1.991,-2.664
0.257,-0.842,0.491,-8.702,0.950,-3.102
0.256,-0.843,0.490,-8.902,-0.122,-3.487
0.256,-0.844,0.490,-9.130,-1.132,-3.761
0.255,-0.846,0.491,-9.323,-2.082,-3.903
0.256,-0.847,0.491,-9.515,-2.978,-3.859
0.256,-0.848,0.492,-9.722,-3.788,-3.741
0.256,-0.848,0.491,-9.968,-4.381,-3.580
0.256,-0.849,0.490,-10.238,-4.873,-3.388
0.257,-0.849,0.487,-10.475,-5.214,-3.274
0.258,-0.851,0.482,-10.629,-5.340,-3.327
0.259,-0.852,0.476,-10.654,-5.274,-3.567
0.262,-0.854,0.470,-10.586,-4.972,-3.983
0.264,-0.857,0.465,-10.415,-4.563,-4.552
0.266,-0.858,0.461,-10.159,-4.067,-5.212
0.268,-0.858,0.459,-9.869,-3.515,-5.889
0.269,-0.857,0.458,-9.546,-2.914,-6.566
0.271,-0.856,0.460,-9.171,-2.300,-7.218
0.272,-0.855,0.464,-8.738,-1.685,-7.865
0.274,-0.854,0.468,-8.243,-1.040,-8.518
0.275,-0.853,0.473,-7.817,-0.302,-9.185
0.277,-0.850,0.477,-7.577,0.654,-9.844
0.279,-0.846,0.482,-7.561,1.766,-10.518
0.282,-0.843,0.488,-7.798,3.035,-11.255
0.284,-0.840,0.494,-8.432,4.376,-12.049
0.286,-0.839,0.500,-9.258,5.731,-12.991
0.289,-0.839,0.506,-10.200,7.246,-14.066
0.293,-0.839,0.512,-11.112,9.072,-15.266
0.297,-0.839,0.518,-11.922,11.404,-16.628
0.302,-0.844,0.525,-12.379,14.529,-18.296
0.308,-0.844,0.531,-12.590,18.698,-20.057
0.314,-0.844,0.539,-12.688,24.061,-21.742
0.319,-0.842,0.547,-12.851,30.118,-23.337
0.324,-0.840,0.555,-13.178,36.611,-24.897
0.329,-0.839,0.562,-13.843,43.404,-26.474
0.333,-0.838,0.569,-14.789,50.309,-28.034
0.339,-0.838,0.576,-16.109,57.349,-29.625
0.344,-0.838,0.581,-17.797,64.533,-31.207
0.350,-0.839,0.587,-19.868,71.656,-32.792
0.356,-0.840,0.592,-22.280,78.667,-34.379
0.362,-0.843,0.596,-24.823,85.595,-35.948
0.368,-0.847,0.599,-27.177,92.590,-37.458
0.375,-0.852,0.600,-29.240,99.993,-38.846
0.382,-0.857,0.601,-30.983,107.615,-40.067
0.389,-0.863,0.600,-32.420,115.392,-41.084
0.396,-0.869,0.599,-33.532,123.215,-41.806
0.402,-0.875,0.597,-34.476,131.020,-42.323
0.409,-0.881,0.594,-35.287,138.780,-42.674
0.415,-0.887,0.589,-36.003,146.537,-42.879
0.421,-0.894,0.584,-36.691,154.033,-42.940
0.427,-0.901,0.577,-37.324,161.299,-42.866
0.433,-0.907,0.570,-37.798,168.277,-42.618
0.438,-0.913,0.562,-38.158,174.854,-42.263
0.443,-0.919,0.553,-38.380,180.937,-41.811
0.446,-0.923,0.544,-38.467,186.447,-41.280
0.449,-0.927,0.534,-38.438,191.356,-40.661
0.452,-0.931,0.522,-38.274,195.678,-39.941

0.455,-0.936,0.498,-38.027,199.408,-39.139
0.455,-0.938,0.485,-37.708,202.543,-38.301
0.455,-0.940,0.471,-37.307,205.104,-37.397
0.454,-0.943,0.456,-36.793,207.268,-36.474
0.453,-0.946,0.439,-36.209,209.216,-35.521
0.452,-0.949,0.423,-35.503,210.980,-34.559
0.450,-0.951,0.406,-34.678,212.578,-33.599
0.447,-0.953,0.388,-33.743,214.124,-32.682
0.444,-0.954,0.370,-32.723,215.576,-31.777
0.440,-0.955,0.353,-31.659,216.725,-30.890
0.435,-0.954,0.337,-30.480,217.242,-30.080
0.429,-0.954,0.322,-29.422,217.125,-29.291
0.422,-0.952,0.307,-28.545,215.999,-28.510
0.415,-0.950,0.292,-27.694,214.046,-27.784
0.408,-0.949,0.276,-26.884,211.719,-27.111
0.402,-0.948,0.258,-25.942,208.990,-26.480
0.395,-0.948,0.240,-24.932,206.059,-25.846
0.388,-0.947,0.222,-23.783,202.756,-25.260
0.380,-0.945,0.204,-22.631,199.258,-24.709
0.372,-0.943,0.186,-21.646,195.457,-24.148
0.363,-0.940,0.169,-20.906,191.291,-23.603
0.355,-0.937,0.152,-20.362,186.813,-23.069
0.346,-0.934,0.136,-19.955,181.980,-22.515
0.338,-0.932,0.120,-19.659,177.098,-21.944
0.329,-0.929,0.104,-19.433,172.329,-21.371
0.321,-0.927,0.088,-19.282,167.844,-20.826
0.314,-0.926,0.071,-19.175,163.801,-20.300
0.307,-0.925,0.054,-19.096,158.150,-19.814
0.300,-0.923,0.037,-19.058,151.158,-19.374
0.294,-0.922,0.020,-19.045,142.804,-18.998
0.287,-0.920,0.005,-19.064,132.980,-18.690
0.282,-0.919,-0.009,-19.134,121.559,-18.421
0.277,-0.917,-0.022,-19.245,107.680,-18.188
0.272,-0.915,-0.033,-19.400,92.130,-17.986
0.269,-0.914,-0.042,-19.589,75.051,-17.822
0.266,-0.914,-0.049,-19.772,56.498,-17.680
0.265,-0.915,-0.055,-19.977,36.645,-17.563
0.265,-0.917,-0.060,-20.199,14.959,-17.436
0.267,-0.919,-0.063,-20.412,-7.147,-17.280
0.270,-0.923,-0.066,-20.520,-29.261,-17.043
0.274,-0.926,-0.069,-20.545,-50.705,-16.731
0.280,-0.930,-0.073,-20.401,-71.232,-16.321
0.287,-0.934,-0.077,-19.992,-90.207,-15.783
0.295,-0.938,-0.079,-19.098,-107.481,-14.985
0.304,-0.942,-0.081,-17.810,-123.204,-13.964
0.313,-0.946,-0.080,-16.076,-137.871,-12.728
0.322,-0.951,-0.077,-14.000,-151.577,-11.278
0.331,-0.956,-0.073,-11.462,-164.509,-9.501
0.340,-0.960,-0.067,-8.712,-176.872,-7.524
0.349,-0.964,-0.059,-5.855,-189.074,-5.334
0.357,-0.968,-0.050,-2.952,-200.715,-2.954
0.366,-0.972,-0.040,0.044,-211.782,-0.278
0.374,-0.975,-0.030,3.093,-222.276,2.602
0.382,-0.978,-0.019,6.219,-232.094,5.677
0.391,-0.981,-0.007,9.459,-240.903,8.954
0.400,-0.983,0.005,12.922,-248.587,12.408
0.410,-0.985,0.016,16.773,-255.018,16.152
0.419,-0.987,0.028,20.923,-260.302,20.048
0.429,-0.987,0.040,25.238,-264.688,24.027
0.438,-0.987,0.053,29.525,-268.404,28.095
0.447,-0.985,0.067,33.679,-271.712,32.179
0.456,-0.983,0.082,37.524,-274.898,36.196
0.465,-0.980,0.099,40.770,-278.085,40.044
0.474,-0.977,0.116,43.005,-281.381,43.720
0.483,-0.974,0.134,44.387,-284.707,47.159
0.493,-0.971,0.152,45.097,-288.035,50.293
0.502,-0.967,0.167,45.405,-291.371,53.044
0.511,-0.964,0.182,45.479,-294.191,55.405
0.520,-0.960,0.196,45.539,-295.844,57.424
0.532,-0.986,0.061,45.274,-269.558,49.885
0.635,-0.811,0.318,47.865,-31.202,41.939
0.771,-0.707,0.489,32.175,20.734,38.156
0.610,-0.756,0.581,32.274,29.614,34.845
0.521,-0.758,0.653,33.837,27.577,36.854
0.513,-0.751,0.703,35.900,18.866,39.037
0.506,-0.732,0.724,37.417,5.109,41.690
0.497,-0.715,0.723,36.946,-5.170,44.838
0.487,-0.710,0.707,35.638,-11.534,46.304
0.472,-0.715,0.682,34.549,-16.154,45.908
0.453,-0.723,0.654,33.708,-20.645,45.022
0.439,-0.733,0.627,33.115,-24.729,44.043
0.429,-0.742,0.600,32.512,-28.260,42.986
0.419,-0.750,0.572,31.623,-30.775,41.833
0.410,-0.760,0.549,30.235,-32.206,40.534
0.403,-0.771,0.531,28.457,-32.827,39.105
0.397,-0.780,0.521,26.629,-33.037,37.957
0.389,-0.788,0.514,25.088,-32.949,36.934
0.379,-0.797,0.511,24.010,-32.599,35.991
0.371,-0.803,0.508,23.300,-31.967,35.095
0.364,-0.805,0.507,22.724,-30.984,34.193
0.356,-0.803,0.506,22.147,-29.740,33.255
0.349,-0.798,0.506,21.409,-28.468,32.258
0.341,-0.793,0.506,19.939,-27.338,31.086
0.335,-0.789,0.506,17.649,-26.438,29.841
0.331,-0.788,0.504,14.686,-25.763,28.536
0.327,-0.790,0.497,11.598,-25.237,27.172
0.326,-0.794,0.491,8.952,-24.802,25.803
0.326,-0.801,0.484,7.197,-24.413,24.457
0.327,-0.808,0.477,6.172,-24.008,23.203
0.328,-0.816,0.471,5.835,-23.561,22.148
0.330,-0.822,0.466,5.751,-23.070,21.305
0.332,-0.828,0.462,5.894,-22.541,20.683
0.333,-0.832,0.458,6.281,-21.957,20.194
0.333,-0.836,0.456,6.866,-21.327,19.826
0.332,-0.839,0.454,7.534,-20.717,19.518
0.330,-0.840,0.452,8.092,-20.184,19.180
0.327,-0.839,0.450,8.439,-19.726,18.792
0.323,-0.838,0.449,8.590,-19.358,18.358
0.319,-0.836,0.448,8.582,-19.139,17.878
0.315,-0.834,0.446,8.436,-19.024,17.347
0.311,-0.833,0.445,8.132,-19.004,16.732
0.307,-0.831,0.443,7.669,-19.046,16.015
0.303,-0.830,0.441,6.969,-19.088,15.275
0.300,-0.830,0.439,6.212,-19.080,14.691
0.298,-0.831,0.436,5.436,-19.144,13.744
0.295,-0.831,0.433,4.542,-19.170,12.866
0.294,-0.833,0.431,3.539,-19.118,12.201
0.293,-0.835,0.428,2.648,-19.074,11.488
0.292,-0.836,0.425,1.868,-19.055,10.760

0.499,-0.824,0.535,-0.007,-12.385,7.770
0.502,-0.822,0.540,-2.145,-5.047,4.739
0.504,-0.820,0.545,-4.675,2.669,1.702
0.507,-0.819,0.549,-8.005,10.581,-1.313
0.510,-0.819,0.552,-11.965,18.574,-4.265
0.513,-0.820,0.554,-16.478,26.670,-7.123
0.518,-0.822,0.554,-21.188,35.204,-9.834
0.523,-0.826,0.553,-25.555,44.014,-12.367
0.528,-0.832,0.549,-29.155,53.346,-14.663
0.534,-0.839,0.545,-31.962,63.432,-16.667
0.540,-0.847,0.540,-33.972,75.145,-18.379
0.545,-0.856,0.533,-35.190,87.567,-19.839
0.549,-0.865,0.527,-35.777,100.371,-21.064
0.552,-0.872,0.520,-35.940,113.193,-22.034
0.555,-0.879,0.514,-35.852,125.571,-22.839
0.556,-0.884,0.507,-35.739,137.182,-23.516
0.557,-0.889,0.501,-35.678,147.741,-24.068
0.557,-0.893,0.494,-35.740,157.013,-24.488
0.557,-0.897,0.487,-35.904,164.956,-24.785
0.557,-0.901,0.479,-36.057,171.833,-24.991
0.556,-0.906,0.468,-36.146,177.820,-25.156
0.556,-0.912,0.455,-36.140,183.202,-25.280
0.557,-0.918,0.441,-36.014,188.337,-25.345
0.556,-0.924,0.428,-35.720,193.109,-25.349
0.554,-0.930,0.414,-35.240,197.468,-25.271
0.552,-0.935,0.401,-34.643,201.417,-25.051
0.549,-0.939,0.389,-33.973,204.856,-24.710
0.546,-0.941,0.378,-33.283,207.724,-24.253
0.541,-0.943,0.370,-32.555,209.559,-23.666
0.536,-0.945,0.362,-31.797,210.599,-22.949
0.531,-0.946,0.353,-31.050,211.113,-22.116
0.527,-0.947,0.343,-30.361,211.149,-21.158
0.522,-0.948,0.331,-29.688,210.910,-20.201
0.518,-0.949,0.319,-29.070,210.310,-19.279
0.514,-0.950,0.305,-28.475,209.440,-18.412
0.509,-0.951,0.290,-27.898,208.277,-17.630
0.504,-0.952,0.275,-27.392,206.764,-16.926
0.499,-0.953,0.260,-26.925,204.863,-16.299
0.494,-0.953,0.246,-26.480,202.182,-15.726
0.488,-0.954,0.232,-26.105,198.961,-15.132
0.482,-0.954,0.217,-25.842,195.226,-14.519
0.476,-0.954,0.203,-25.672,191.021,-13.861
0.469,-0.953,0.189,-25.567,186.479,-13.105
0.462,-0.952,0.175,-25.506,181.712,-12.270
0.455,-0.951,0.161,-25.469,176.774,-11.345
0.448,-0.949,0.148,-25.428,171.939,-10.337
0.441,-0.947,0.135,-25.318,167.345,-9.233
0.434,-0.945,0.121,-25.150,163.112,-8.080
0.428,-0.943,0.107,-24.921,158.780,-6.939
0.422,-0.942,0.092,-24.638,153.263,-5.817
0.416,-0.941,0.079,-24.302,146.964,-4.727
0.411,-0.939,0.066,-23.914,139.878,-3.685
0.406,-0.938,0.054,-23.473,131.949,-2.704
0.401,-0.937,0.043,-22.991,123.110,-1.757
0.397,-0.936,0.034,-22.510,113.355,-0.811
0.393,-0.935,0.027,-22.015,102.042,0.136
0.389,-0.934,0.020,-21.535,89.717,1.089
0.386,-0.933,0.015,-21.075,76.421,2.038
0.384,-0.933,0.010,-20.631,62.275,3.033
0.382,-0.932,0.005,-20.139,47.405,4.033
0.380,-0.932,0.001,-19.588,31.993,5.027
0.379,-0.933,-0.003,-19.026,15.980,5.994
0.379,-0.933,-0.008,-18.451,0.297,6.950
0.379,-0.934,-0.012,-17.821,-14.853,7.895
0.380,-0.935,-0.016,-17.029,-29.380,8.824
0.382,-0.936,-0.018,-16.126,-43.310,9.759
0.384,-0.937,-0.018,-15.167,-57.121,10.713
0.386,-0.938,-0.017,-14.233,-70.707,11.703
0.389,-0.939,-0.015,-13.341,-84.207,12.793
0.391,-0.941,-0.011,-12.480,-97.735,13.960
0.395,-0.943,-0.006,-11.663,-111.681,15.236
0.399,-0.946,-0.001,-10.811,-125.475,16.626
0.403,-0.948,0.003,-9.918,-138.707,18.133
0.408,-0.952,0.008,-8.860,-151.135,19.826
0.414,-0.955,0.012,-7.536,-162.527,21.677
0.420,-0.958,0.016,-5.838,-172.629,23.691
0.427,-0.961,0.020,-3.784,-181.579,25.863
0.434,-0.964,0.026,-1.345,-189.425,28.203
0.441,-0.965,0.033,1.541,-196.429,30.696
0.447,-0.966,0.040,4.580,-202.845,33.285
0.453,-0.967,0.049,7.632,-208.868,35.940
0.459,-0.967,0.059,10.595,-214.848,38.624
0.465,-0.966,0.069,13.386,-220.879,41.346
0.470,-0.965,0.079,15.956,-227.029,44.092
0.475,-0.963,0.090,18.309,-233.304,46.809
0.480,-0.961,0.100,20.536,-239.699,49.380
0.486,-0.960,0.110,22.675,-246.131,51.795
0.491,-0.959,0.120,24.761,-252.522,54.025
0.498,-0.958,0.129,26.786,-258.635,56.013
0.506,-0.958,0.139,28.784,-264.264,57.840
0.514,-0.957,0.149,30.778,-269.061,59.524
0.522,-0.955,0.159,32.915,-273.143,61.113
0.531,-0.953,0.170,35.057,-276.479,62.183
0.541,-0.999,0.179,41.048,-98.247,41.431
0.790,-0.887,0.450,48.225,28.257,38.899
0.746,-0.818,0.558,53.524,39.288,40.258
0.614,-0.832,0.617,66.038,39.116,45.156
0.584,-0.792,0.671,64.753,32.810,50.333
0.555,-0.767,0.704,60.907,17.815,51.970
0.530,-0.734,0.717,52.253,-0.366,51.901
0.513,-0.706,0.708,38.492,-14.537,50.918
0.500,-0.702,0.685,25.919,-25.108,49.134
0.488,-0.713,0.654,17.128,-34.426,46.573
0.480,-0.720,0.626,11.817,-40.657,45.332
0.475,-0.732,0.599,9.454,-45.456,43.782
0.467,-0.746,0.570,7.934,-48.023,42.356
0.459,-0.758,0.545,6.875,-48.603,40.939
0.451,-0.772,0.524,6.278,-48.116,39.444
0.444,-0.791,0.510,6.369,-47.034,37.811
0.437,-0.810,0.501,7.367,-45.595,36.306
0.430,-0.825,0.495,9.007,-43.643,35.123
0.422,-0.835,0.491,10.807,-41.438,34.224
0.411,-0.841,0.488,12.396,-39.216,33.373
0.400,-0.844,0.484,13.575,-37.109,32.540
0.390,-0.844,0.481,14.188,-35.149,31.691
0.381,-0.843,0.479,14.236,-33.359,30.780
0.373,-0.840,0.478,13.790,-31.727,29.741
0.367,-0.838,0.477,12.680,-30.329,28.540
0.361,-0.834,0.476,10.512,-29.200,27.218

0.441,-0.913,0.501,9.356,-22.686,24.867
0.441,-0.911,0.505,8.072,-15.739,22.609
0.442,-0.909,0.509,6.407,-8.266,20.472
0.442,-0.906,0.512,4.138,-0.522,18.431
0.442,-0.904,0.515,1.355,7.379,16.342
0.442,-0.903,0.517,-1.837,15.210,13.985
0.443,-0.903,0.519,-5.096,22.995,11.531
0.443,-0.904,0.520,-8.223,30.897,9.070
0.444,-0.906,0.521,-11.113,38.780,6.704
0.446,-0.908,0.522,-13.681,46.573,4.525
0.448,-0.911,0.522,-15.808,54.331,2.563
0.450,-0.914,0.522,-16.583,62.134,0.910
0.452,-0.917,0.519,-17.730,70.164,-0.485
0.455,-0.920,0.516,-18.591,78.522,-1.663
0.458,-0.922,0.512,-19.241,87.431,-2.678
0.460,-0.924,0.508,-19.755,96.407,-3.592
0.462,-0.927,0.503,-20.176,105.213,-4.418
0.464,-0.928,0.499,-20.564,113.625,-5.162
0.465,-0.930,0.494,-20.973,121.495,-5.869
0.466,-0.931,0.488,-21.435,128.751,-6.554
0.466,-0.933,0.482,-22.004,135.294,-7.199
0.467,-0.934,0.474,-22.673,141.131,-7.805
0.468,-0.936,0.466,-23.424,146.329,-8.364
0.469,-0.938,0.457,-24.115,150.906,-8.889
0.469,-0.940,0.447,-24.684,154.894,-9.368
0.469,-0.943,0.436,-25.144,158.430,-9.762
0.469,-0.945,0.423,-25.464,161.679,-10.083
0.469,-0.948,0.409,-25.648,164.748,-10.331
0.469,-0.951,0.394,-25.643,167.782,-10.532
0.468,-0.954,0.378,-25.495,170.614,-10.673
0.467,-0.956,0.361,-25.217,173.105,-10.732
0.464,-0.959,0.344,-24.834,175.136,-10.726
0.461,-0.962,0.327,-24.370,176.591,-10.640
0.458,-0.963,0.310,-23.802,177.280,-10.467
0.454,-0.965,0.293,-23.233,177.150,-10.194
0.449,-0.965,0.277,-22.665,175.788,-9.819
0.444,-0.965,0.261,-22.077,173.589,-9.354
0.439,-0.965,0.246,-21.515,170.673,-8.807
0.433,-0.964,0.229,-20.986,167.246,-8.149
0.428,-0.963,0.214,-20.451,163.456,-7.414
0.422,-0.963,0.197,-19.915,159.458,-6.631
0.416,-0.962,0.181,-19.321,155.310,-5.813
0.411,-0.961,0.164,-18.664,151.212,-4.984
0.406,-0.961,0.148,-17.910,147.224,-4.140
0.400,-0.960,0.132,-17.171,143.395,-3.310
0.396,-0.959,0.117,-16.472,139.766,-2.527
0.391,-0.959,0.103,-15.839,136.025,-1.787
0.386,-0.958,0.089,-15.284,131.581,-1.085
0.381,-0.958,0.077,-14.802,126.384,-0.403
0.376,-0.957,0.065,-14.347,120.412,0.257
0.372,-0.956,0.054,-13.942,113.662,0.895
0.368,-0.955,0.044,-13.572,105.826,1.510
0.364,-0.954,0.034,-13.223,97.296,2.104
0.360,-0.952,0.025,-12.858,88.151,2.666
0.357,-0.951,0.017,-12.482,78.517,3.220
0.354,-0.950,0.009,-12.111,68.483,3.750
0.352,-0.949,0.002,-11.722,58.136,4.248
0.350,-0.948,-0.005,-11.320,47.489,4.730
0.348,-0.948,-0.010,-10.857,36.271,5.196
0.347,-0.948,-0.014,-10.364,24.784,5.659
0.347,-0.947,-0.018,-9.830,13.128,6.147
0.347,-0.947,-0.021,-9.234,1.413,6.663
0.347,-0.948,-0.023,-8.597,-10.361,7.212
0.348,-0.948,-0.025,-7.970,-22.112,7.800
0.349,-0.949,-0.025,-7.408,-34.102,8.425
0.351,-0.950,-0.024,-6.881,-45.963,9.100
0.353,-0.951,-0.023,-6.333,-57.669,9.870
0.356,-0.954,-0.020,-5.716,-69.118,10.726
0.360,-0.956,-0.017,-4.960,-80.536,11.674
0.364,-0.958,-0.014,-4.077,-91.582,12.734
0.368,-0.960,-0.010,-3.029,-102.128,13.981
0.373,-0.962,-0.007,-1.705,-112.069,15.355
0.378,-0.964,-0.004,-0.129,-121.308,16.843
0.384,-0.966,-0.001,1.748,-130.024,18.450
0.390,-0.968,0.003,3.885,-138.271,20.226
0.396,-0.969,0.008,6.264,-146.294,22.142
0.402,-0.970,0.013,9.055,-154.265,24.279
0.408,-0.970,0.020,12.142,-162.317,26.559
0.414,-0.971,0.027,15.559,-170.494,28.959
0.419,-0.971,0.034,19.318,-179.281,31.433
0.426,-0.972,0.042,23.313,-188.305,33.987
0.432,-0.972,0.051,27.321,-197.487,36.598
0.439,-0.972,0.061,31.119,-206.791,39.170
0.447,-0.971,0.074,34.634,-215.750,41.705
0.456,-0.970,0.087,37.871,-223.510,44.212
0.464,-0.968,0.100,40.838,-230.239,46.641
0.471,-0.965,0.112,43.602,-236.207,48.931
0.479,-0.963,0.118,45.369,-242.066,50.011
0.509,-0.995,0.094,49.451,-170.293,45.610
0.727,-0.955,0.329,99.280,-12.262,43.599
0.719,-0.936,0.460,131.272,12.885,51.557
0.628,-0.880,0.543,137.067,13.157,58.604
0.574,-0.799,0.600,133.242,6.563,60.012
0.527,-0.742,0.628,113.303,-4.276,59.144
0.510,-0.701,0.635,82.143,-14.337,57.020
0.495,-0.691,0.623,51.642,-22.247,53.513
0.484,-0.702,0.601,29.807,-27.502,49.453
0.478,-0.715,0.577,20.756,-32.224,44.906
0.471,-0.721,0.549,16.050,-35.732,41.199
0.464,-0.731,0.523,13.520,-39.185,38.707
0.457,-0.745,0.499,11.829,-41.778,37.201
0.454,-0.760,0.476,10.698,-42.316,36.160
0.449,-0.779,0.457,10.334,-41.831,35.069
0.442,-0.800,0.443,10.895,-40.845,33.797
0.435,-0.820,0.435,12.471,-39.147,32.759
0.429,-0.835,0.430,14.725,-36.882,31.953
0.422,-0.845,0.429,17.015,-34.424,31.226
0.411,-0.850,0.427,18.965,-31.732,30.472
0.400,-0.851,0.426,20.183,-28.852,29.560
0.391,-0.850,0.426,20.588,-25.960,28.364
0.384,-0.847,0.429,20.096,-23.260,26.920
0.379,-0.845,0.433,18.923,-20.930,25.431
0.374,-0.843,0.436,16.865,-19.089,23.955
0.369,-0.840,0.439,14.019,-17.825,22.497
0.366,-0.837,0.440,10.706,-17.169,21.089
0.363,-0.836,0.438,7.502,-16.793,19.780
0.362,-0.836,0.435,4.968,-16.566,18.618
0.361,-0.838,0.431,3.568,-16.419,17.705
0.362,-0.842,0.427,2.871,-16.270,17.034

0.421,-0.862,0.572,0.050,-8.853,14.197
0.424,-0.865,0.573,-2.376,-1.277,11.400
0.428,-0.869,0.572,-4.304,6.629,8.716
0.432,-0.873,0.570,-5.771,15.437,6.291
0.437,-0.877,0.568,-6.837,24.789,4.160
0.441,-0.881,0.566,-7.551,34.602,2.313
0.446,-0.884,0.565,-7.989,44.471,0.767
0.449,-0.886,0.563,-8.343,54.231,-0.575
0.452,-0.887,0.562,-8.730,63.657,-1.773
0.454,-0.888,0.556,-9.231,72.678,-2.887
0.456,-0.889,0.554,-9.935,81.086,-3.952
0.457,-0.889,0.551,-10.877,88.816,-4.982
0.459,-0.890,0.548,-12.176,95.842,-5.988
0.460,-0.892,0.545,-13.707,102.223,-6.982
0.462,-0.894,0.541,-15.359,108.050,-7.953
0.463,-0.897,0.535,-16.913,113.524,-8.880
0.466,-0.900,0.528,-18.145,118.853,-9.765
0.468,-0.905,0.519,-18.824,124.183,-10.532
0.471,-0.910,0.510,-19.141,129.565,-11.148
0.473,-0.915,0.501,-19.215,135.092,-11.612
0.475,-0.920,0.490,-19.127,140.541,-11.947
0.475,-0.924,0.480,-18.931,145.912,-12.197
0.475,-0.928,0.470,-18.658,151.067,-12.358
0.475,-0.931,0.459,-18.378,155.942,-12.457
0.474,-0.934,0.449,-18.134,160.363,-12.494
0.472,-0.936,0.438,-17.946,164.171,-12.493
0.469,-0.938,0.426,-17.833,167.362,-12.462
0.467,-0.941,0.413,-17.744,169.891,-12.405
0.464,-0.944,0.400,-17.630,171.817,-12.326
0.461,-0.948,0.384,-17.439,173.165,-12.227
0.457,-0.952,0.367,-17.170,174.109,-12.100
0.454,-0.955,0.349,-16.779,174.655,-11.952
0.449,-0.959,0.331,-16.155,174.794,-11.742
0.445,-0.963,0.312,-15.355,174.547,-11.481
0.440,-0.966,0.293,-14.425,173.763,-11.129
0.434,-0.968,0.274,-13.467,172.517,-10.678
0.428,-0.969,0.256,-12.529,170.720,-10.084
0.421,-0.969,0.239,-11.661,168.336,-9.389
