aX,aY,aZ,gX,gY,gZ
-0.189,-0.451,1.230,-2.546,-4.499,-0.254
-0.193,-0.454,1.244,-3.997,-6.640,0.713
-0.196,-0.458,1.260,-5.107,-8.699,1.697
-0.199,-0.464,1.276,-5.878,-10.649,2.823
-0.202,-0.472,1.292,-6.374,-12.416,4.135
-0.204,-0.481,1.309,-6.575,-13.935,5.690
-0.207,-0.491,1.326,-6.520,-15.421,7.533
-0.211,-0.500,1.344,-6.236,-17.110,9.735
-0.214,-0.510,1.362,-5.558,-19.079,12.574
-0.216,-0.519,1.383,-4.529,-21.198,15.688
-0.214,-0.529,1.402,-3.228,-21.826,18.529
-0.211,-0.537,1.421,-1.645,-22.615,21.234
-0.207,-0.546,1.438,0.151,-23.382,24.134
-0.203,-0.553,1.457,2.523,-23.977,26.974
-0.198,-0.563,1.465,4.311,-24.511,29.744
-0.187,-0.571,1.467,5.682,-24.168,32.376
-0.166,-0.580,1.463,6.584,-21.827,34.567
-0.147,-0.589,1.457,7.286,-17.865,36.272
-0.126,-0.600,1.450,8.023,-12.226,37.447
-0.105,-0.613,1.441,9.215,-4.633,37.869
-0.086,-0.626,1.431,11.048,4.816,37.972
-0.068,-0.638,1.421,13.836,15.744,38.056
-0.052,-0.650,1.411,17.739,27.703,37.980
-0.038,-0.659,1.403,22.645,40.898,37.737
-0.025,-0.665,1.395,28.208,54.372,37.367
-0.013,-0.669,1.388,33.799,67.935,36.900
-0.000,-0.670,1.381,38.840,81.595,36.442
0.012,-0.669,1.374,42.994,95.246,36.095
0.023,-0.666,1.366,46.204,108.689,35.963
0.034,-0.661,1.353,48.459,121.900,36.036
0.043,-0.655,1.337,49.811,134.926,36.298
0.052,-0.647,1.317,50.421,147.497,36.722
0.059,-0.639,1.292,50.456,159.658,37.208
0.063,-0.630,1.265,50.217,170.739,37.665
0.065,-0.623,1.236,49.991,180.402,37.991
0.066,-0.618,1.206,50.109,188.609,38.145
0.065,-0.615,1.175,51.014,195.738,38.068
0.065,-0.612,1.143,53.583,201.917,37.675
0.063,-0.608,1.112,57.411,207.205,37.164
0.059,-0.602,1.080,62.033,211.452,36.612
0.055,-0.593,1.050,66.838,214.883,36.064
0.051,-0.580,1.023,71.479,217.528,35.512
0.046,-0.566,0.999,75.500,219.603,34.975
0.041,-0.551,0.977,79.003,220.886,34.483
0.034,-0.536,0.957,82.087,220.609,34.059
0.026,-0.519,0.939,84.778,218.809,33.592
0.019,-0.503,0.922,87.049,216.149,33.048
0.013,-0.486,0.905,89.082,212.935,32.567
0.007,-0.470,0.886,91.080,209.181,32.174
-0.001,-0.453,0.869,92.826,204.915,31.925
-0.009,-0.436,0.853,93.948,200.000,31.810
-0.018,-0.418,0.837,94.237,194.887,31.881
-0.027,-0.401,0.822,93.767,189.644,32.138
-0.036,-0.384,0.805,92.711,184.340,32.539
-0.045,-0.368,0.788,91.135,179.050,33.088
-0.054,-0.353,0.772,89.349,173.802,33.652
-0.064,-0.337,0.755,87.411,168.641,34.167
-0.074,-0.322,0.738,85.402,163.610,34.603
-0.085,-0.307,0.721,83.399,158.760,34.935
-0.096,-0.292,0.704,81.123,154.117,35.135
-0.107,-0.279,0.688,78.905,149.663,35.236
-0.118,-0.266,0.673,77.044,145.380,35.267
-0.130,-0.255,0.660,75.322,141.252,35.233
-0.141,-0.243,0.648,73.723,137.262,35.189
-0.153,-0.231,0.637,72.247,133.391,35.158
-0.164,-0.219,0.626,70.890,129.644,35.123
-0.176,-0.206,0.615,69.619,126.157,35.027
-0.188,-0.193,0.603,68.373,122.647,34.839
-0.199,-0.180,0.591,67.103,119.254,34.550
-0.211,-0.167,0.578,65.777,115.976,34.153
-0.222,-0.154,0.564,64.359,112.813,33.612
-0.233,-0.141,0.550,62.906,109.776,33.005
-0.244,-0.129,0.538,61.193,106.666,32.360
-0.255,-0.118,0.525,59.219,103.109,31.680
-0.265,-0.108,0.515,57.080,98.886,30.987
-0.274,-0.098,0.507,54.860,94.299,30.299
-0.282,-0.089,0.500,52.565,89.508,29.636
-0.290,-0.080,0.495,50.216,84.555,28.987
-0.297,-0.071,0.490,47.831,79.463,28.323
-0.304,-0.063,0.486,45.461,74.301,27.646
-0.310,-0.056,0.482,43.162,69.138,26.945
-0.315,-0.049,0.477,40.927,63.961,26.230
-0.321,-0.043,0.473,38.663,58.664,25.497
-0.327,-0.036,0.468,36.207,53.214,24.754
-0.333,-0.030,0.463,33.479,47.911,23.992
-0.339,-0.023,0.457,30.384,42.768,23.228
-0.345,-0.016,0.451,26.943,37.703,22.432
-0.351,-0.010,0.446,23.393,32.690,21.615
-0.356,-0.005,0.443,19.796,27.669,20.790
-0.361,0.001,0.441,16.140,22.599,19.943
-0.365,0.007,0.442,12.265,17.504,19.070
-0.367,0.012,0.444,8.125,12.354,18.182
-0.369,0.017,0.448,3.671,7.392,17.231
-0.371,0.021,0.452,-1.018,2.582,16.250
-0.373,0.025,0.456,-5.889,-2.086,15.288
-0.376,0.027,0.460,-10.830,-6.659,14.322
-0.380,0.028,0.463,-15.869,-11.179,13.366
-0.384,0.028,0.466,-21.141,-15.704,12.396
-0.389,0.028,0.468,-26.625,-20.304,11.413
-0.393,0.027,0.469,-32.215,-24.905,10.371
-0.396,0.025,0.471,-37.768,-29.533,9.177
-0.398,0.022,0.476,-42.743,-34.010,7.868
-0.398,0.018,0.481,-46.798,-38.178,6.498
-0.397,0.012,0.488,-49.839,-41.938,5.112
-0.396,0.006,0.497,-52.037,-45.425,3.742
-0.396,-0.001,0.507,-53.692,-48.677,2.403
-0.397,-0.007,0.517,-55.099,-51.210,1.681
-0.397,-0.012,0.524,-56.142,-53.173,1.440
-0.399,-0.018,0.528,-56.558,-56.298,-0.397
-0.401,-0.021,0.530,-59.372,-57.392,-0.324
-0.400,-0.031,0.528,-61.387,-57.987,-0.553
-0.401,-0.040,0.529,-61.749,-59.181,-1.528
-0.402,-0.043,0.532,-62.427,-60.343,-3.256
-0.398,-0.045,0.540,-63.658,-61.043,-5.263
-0.395,-0.049,0.550,-65.021,-61.407,-7.753
-0.392,-0.056,0.562,-66.439,-61.487,-9.670
-0.393,-0.066,0.575,-67.805,-62.963,-10.237
-0.400,-0.076,0.588,-68.868,-66.557,-10.741
-0.402,-0.084,0.598,-70.140,-70.008,-11.729
-0.402,-0.089,0.605,-73.659,-73.132,-13.299
-0.402,-0.093,0.612,-77.419,-76.341,-15.071
-0.401,-0.099,0.618,-82.093,-79.571,-17.137
-0.397,-0.106,0.625,-87.387,-82.291,-19.517
-0.392,-0.115,0.633,-92.783,-84.550,-22.037
-0.387,-0.125,0.643,-97.525,-86.762,-24.488
-0.385,-0.136,0.654,-101.397,-88.948,-26.821
-0.384,-0.147,0.667,-104.497,-90.871,-28.992
-0.383,-0.159,0.678,-107.170,-92.175,-31.023
-0.381,-0.171,0.687,-109.853,-92.839,-32.812
-0.378,-0.183,0.695,-112.590,-93.046,-34.424
-0.375,-0.195,0.702,-115.372,-92.926,-35.964
-0.371,-0.207,0.710,-118.075,-92.601,-37.398
-0.366,-0.219,0.718,-120.386,-92.113,-38.682
-0.360,-0.234,0.728,-121.739,-91.463,-39.867
-0.354,-0.250,0.739,-122.120,-90.700,-40.914
-0.347,-0.268,0.752,-121.408,-89.861,-41.982
-0.342,-0.286,0.765,-119.835,-89.033,-43.075
-0.336,-0.304,0.777,-117.584,-88.286,-44.344
-0.330,-0.322,0.788,-115.116,-87.623,-45.846
-0.324,-0.338,0.797,-112.559,-86.945,-47.521
-0.317,-0.355,0.804,-110.029,-86.136,-49.211
-0.310,-0.370,0.808,-107.600,-85.130,-50.724
-0.301,-0.385,0.812,-105.271,-83.880,-52.061
-0.293,-0.400,0.814,-103.035,-82.314,-53.201
-0.284,-0.413,0.818,-100.849,-80.644,-54.170
-0.277,-0.425,0.823,-98.638,-78.957,-54.954
-0.270,-0.436,0.830,-96.396,-77.305,-55.618
-0.264,-0.447,0.839,-94.182,-75.729,-56.167
-0.259,-0.456,0.848,-92.070,-74.249,-56.567
-0.255,-0.464,0.856,-90.125,-72.879,-56.752
-0.251,-0.472,0.863,-88.379,-71.641,-56.874
-0.246,-0.480,0.869,-86.793,-70.504,-56.963
-0.241,-0.487,0.873,-85.328,-69.416,-57.044
-0.235,-0.495,0.874,-83.971,-68.338,-57.119
-0.228,-0.503,0.874,-82.671,-67.230,-57.194
-0.220,-0.512,0.872,-81.372,-66.063,-57.255
-0.211,-0.522,0.869,-79.979,-64.802,-57.281
-0.202,-0.532,0.867,-78.427,-63.502,-57.267
-0.193,-0.542,0.866,-76.640,-62.208,-57.231
-0.185,-0.552,0.865,-74.782,-60.958,-57.193
-0.177,-0.562,0.866,-72.923,-59.789,-57.128
-0.170,-0.570,0.866,-71.102,-58.688,-57.000
-0.163,-0.577,0.867,-69.334,-57.639,-56.732
-0.156,-0.583,0.868,-67.628,-56.651,-56.426
-0.149,-0.588,0.864,-65.984,-55.770,-56.108
-0.141,-0.593,0.863,-64.422,-54.720,-55.519
-0.131,-0.598,0.861,-62.908,-53.348,-54.929
-0.121,-0.603,0.860,-61.475,-51.890,-54.409
-0.113,-0.606,0.859,-60.110,-50.897,-54.023
-0.107,-0.609,0.858,-58.841,-50.239,-53.914
-0.100,-0.611,0.857,-57.683,-49.631,-54.074
-0.092,-0.614,0.855,-56.637,-48.940,-54.334
-0.083,-0.618,0.853,-55.632,-48.147,-54.388
-0.076,-0.623,0.852,-54.647,-47.231,-54.132
-0.069,-0.627,0.850,-53.667,-46.239,-53.595
-0.062,-0.632,0.849,-52.657,-45.207,-52.861
-0.055,-0.637,0.848,-51.577,-44.215,-52.107
-0.049,-0.640,0.847,-50.493,-43.314,-51.398
-0.043,-0.643,0.845,-49.444,-42.481,-50.776
-0.036,-0.646,0.844,-48.434,-41.686,-50.247
-0.029,-0.650,0.842,-47.461,-40.939,-49.776
-0.022,-0.653,0.842,-46.518,-40.274,-49.342
-0.016,-0.656,0.841,-45.598,-39.691,-48.863
-0.010,-0.660,0.841,-44.687,-39.168,-48.281
-0.004,-0.664,0.840,-43.763,-38.662,-47.652
0.003,-0.667,0.840,-42.835,-38.133,-46.998
0.009,-0.671,0.839,-41.920,-37.560,-46.321
0.015,-0.674,0.839,-41.021,-36.971,-45.624
0.022,-0.678,0.838,-40.133,-36.374,-44.832
0.028,-0.683,0.838,-39.245,-35.790,-43.954
0.034,-0.687,0.839,-38.351,-35.236,-43.009
0.040,-0.690,0.839,-37.450,-34.691,-42.040
0.046,-0.694,0.840,-36.543,-34.116,-41.083
0.052,-0.698,0.841,-35.638,-33.500,-40.139
0.058,-0.701,0.841,-34.740,-32.845,-39.190
0.063,-0.705,0.841,-33.830,-32.162,-38.208
0.068,-0.708,0.841,-32.909,-31.460,-37.185
0.073,-0.710,0.840,-31.987,-30.731,-36.116
0.078,-0.713,0.838,-31.065,-29.961,-34.993

0.137,-0.777,0.956,-30.095,-29.995,-32.242
0.136,-0.783,0.967,-29.022,-30.079,-29.294
0.136,-0.788,0.979,-27.858,-30.259,-25.945
0.135,-0.794,0.992,-26.601,-30.480,-22.275
0.135,-0.800,1.006,-25.238,-30.683,-18.347
0.135,-0.807,1.019,-23.799,-30.867,-14.181
0.135,-0.813,1.033,-22.354,-31.087,-9.578
0.135,-0.820,1.046,-20.979,-31.337,-4.713
0.134,-0.827,1.058,-19.701,-31.524,0.291
0.135,-0.835,1.071,-18.521,-31.564,5.332
0.136,-0.843,1.085,-17.343,-31.544,10.445
0.138,-0.850,1.098,-16.120,-31.496,15.714
0.140,-0.859,1.111,-14.742,-31.387,20.621
0.143,-0.866,1.123,-13.382,-30.773,24.946
0.149,-0.874,1.134,-11.944,-29.390,29.107
0.153,-0.881,1.145,-10.264,-27.783,33.252
0.156,-0.888,1.155,-8.213,-25.995,37.346
0.159,-0.896,1.164,-5.481,-23.939,41.317
0.162,-0.904,1.173,-2.007,-21.598,45.080
0.166,-0.912,1.180,2.310,-18.939,48.561
0.170,-0.920,1.185,7.491,-15.606,51.789
0.175,-0.927,1.189,13.303,-11.631,54.745
0.180,-0.933,1.191,19.375,-6.878,57.499
0.184,-0.939,1.190,25.066,-1.197,60.115
0.189,-0.941,1.187,29.674,5.383,62.571
0.192,-0.942,1.183,33.547,12.483,64.837
0.194,-0.942,1.178,36.864,19.887,66.788
0.195,-0.942,1.170,40.105,27.420,68.366
0.196,-0.942,1.162,43.471,35.391,69.588
0.195,-0.942,1.152,47.009,43.650,70.518
0.194,-0.941,1.142,50.915,52.050,71.201
0.191,-0.941,1.131,55.553,60.378,71.562
0.188,-0.942,1.121,60.563,68.660,71.701
0.185,-0.942,1.110,65.895,76.938,71.650
0.182,-0.942,1.098,71.434,85.356,71.449
0.178,-0.940,1.085,77.109,93.875,71.179
0.174,-0.935,1.072,82.725,102.448,70.829
0.168,-0.929,1.059,88.053,110.662,70.365
0.161,-0.920,1.045,93.060,118.458,69.820
0.153,-0.910,1.030,97.730,125.860,69.151
0.144,-0.898,1.014,101.919,132.764,68.285
0.133,-0.885,0.995,105.435,139.187,67.393
0.122,-0.869,0.975,108.330,145.012,66.392
0.110,-0.852,0.955,110.732,150.019,65.243
0.097,-0.835,0.936,112.868,153.881,63.911
0.084,-0.819,0.920,114.697,156.420,62.436
0.070,-0.804,0.904,116.403,158.166,60.844
0.056,-0.789,0.887,117.999,159.453,59.193
0.044,-0.774,0.870,119.535,160.425,57.489
0.032,-0.759,0.853,121.034,161.219,55.750
0.020,-0.743,0.837,122.653,161.795,53.978
0.010,-0.727,0.821,124.585,162.200,52.101
0.000,-0.711,0.807,126.977,162.363,50.027
-0.009,-0.696,0.794,129.719,162.376,47.827
-0.017,-0.680,0.781,132.647,162.217,45.644
-0.024,-0.665,0.767,135.493,161.734,43.576
-0.030,-0.649,0.752,138.072,161.134,41.680
-0.036,-0.633,0.736,140.386,160.316,39.898
-0.043,-0.616,0.720,142.334,159.148,38.133
-0.050,-0.598,0.705,143.386,157.566,36.425
-0.057,-0.579,0.691,143.559,155.554,34.761
-0.065,-0.560,0.678,142.674,153.095,33.164
-0.072,-0.540,0.667,140.820,150.066,31.674
-0.079,-0.520,0.657,138.299,146.699,30.298
-0.085,-0.502,0.647,135.431,143.160,29.061
-0.091,-0.485,0.637,132.376,139.596,27.972
-0.096,-0.469,0.626,129.285,136.162,26.940
-0.101,-0.453,0.615,126.166,132.859,25.967
-0.107,-0.437,0.602,123.043,129.596,25.054
-0.114,-0.421,0.589,119.972,126.284,24.181
-0.122,-0.405,0.575,117.005,122.980,23.355
-0.130,-0.390,0.561,114.177,119.709,22.590
-0.138,-0.376,0.547,109.854,116.498,21.902
-0.146,-0.362,0.534,106.596,113.364,21.270
-0.155,-0.349,0.522,103.463,110.316,20.710
-0.164,-0.337,0.511,100.598,107.366,20.199
-0.175,-0.324,0.502,98.055,104.544,19.710
-0.186,-0.312,0.495,95.707,101.455,19.202
-0.196,-0.300,0.489,93.420,98.110,18.671
-0.207,-0.289,0.484,91.205,94.668,18.152
-0.217,-0.277,0.481,89.068,91.137,17.683
-0.227,-0.266,0.479,86.989,87.523,17.243
-0.238,-0.254,0.477,84.939,83.898,16.828
-0.248,-0.242,0.475,82.741,80.257,16.461
-0.259,-0.231,0.473,80.042,76.578,16.106
-0.270,-0.219,0.472,76.814,72.765,15.738
-0.282,-0.209,0.470,73.086,68.789,15.316
-0.295,-0.199,0.470,69.193,64.635,14.855
-0.308,-0.189,0.470,65.316,60.394,14.259
-0.320,-0.179,0.472,61.278,58.244,13.485
-0.331,-0.170,0.475,57.514,56.031,12.754
-0.345,-0.163,0.480,53.812,53.650,12.031
-0.358,-0.155,0.485,50.236,51.224,11.269
-0.370,-0.148,0.491,46.506,48.860,10.534
-0.383,-0.141,0.495,42.620,46.595,9.897
-0.395,-0.136,0.499,38.743,44.479,9.383
-0.407,-0.131,0.502,35.093,42.529,8.976
-0.419,-0.128,0.504,31.848,40.865,8.729
-0.432,-0.125,0.505,29.207,39.420,8.664
-0.444,-0.123,0.508,27.276,38.147,8.742
-0.456,-0.123,0.511,26.058,36.994,8.911
-0.467,-0.122,0.515,25.581,35.882,9.100
-0.478,-0.121,0.520,25.401,34.800,9.253
-0.489,-0.119,0.525,25.455,33.735,9.349
-0.499,-0.116,0.531,25.673,32.659,9.396
-0.509,-0.114,0.536,25.982,31.594,9.405
-0.518,-0.111,0.542,26.313,30.535,9.386
-0.527,-0.107,0.547,26.534,29.472,9.318
-0.536,-0.103,0.552,26.563,28.355,9.205
-0.545,-0.098,0.557,26.361,27.157,9.046
-0.554,-0.093,0.561,25.971,25.903,8.846
-0.562,-0.088,0.565,25.450,24.584,8.594
-0.570,-0.084,0.569,24.816,23.244,8.283
-0.578,-0.080,0.573,24.112,21.920,7.924
-0.585,-0.077,0.578,23.348,20.625,7.526
-0.592,-0.074,0.582,22.581,19.424,7.137
-0.598,-0.072,0.586,21.869,18.341,6.780
-0.604,-0.070,0.590,21.272,17.389,6.480
-0.609,-0.069,0.593,20.811,16.591,6.228
-0.615,-0.068,0.596,20.435,15.901,6.018
-0.620,-0.066,0.599,20.098,15.297,5.816
-0.625,-0.064,0.601,19.780,14.745,5.598
-0.629,-0.062,0.604,19.467,14.215,5.365
-0.634,-0.061,0.607,19.155,13.698,5.106
-0.639,-0.059,0.610,18.811,13.171,4.827
-0.643,-0.056,0.613,18.401,12.640,4.542
-0.647,-0.054,0.617,17.920,12.111,4.254
-0.651,-0.052,0.620,17.372,11.597,3.966
-0.654,-0.051,0.623,16.768,11.106,3.686
-0.658,-0.049,0.625,16.106,10.641,3.418
-0.661,-0.048,0.627,15.443,10.206,3.169
-0.663,-0.047,0.629,14.823,9.796,2.949
-0.666,-0.046,0.630,14.282,9.407,2.758
-0.669,-0.046,0.631,13.847,9.037,2.596
-0.671,-0.045,0.632,13.524,8.683,2.460
-0.674,-0.045,0.633,13.308,8.351,2.347
-0.676,-0.045,0.634,13.189,8.050,2.259
-0.678,-0.045,0.635,13.124,7.762,2.194
-0.680,-0.044,0.637,13.077,7.478,2.131
-0.682,-0.044,0.638,13.058,7.221,2.072
-0.683,-0.043,0.639,13.067,6.984,2.020
-0.685,-0.042,0.640,13.091,6.757,1.966
-0.687,-0.041,0.641,13.115,6.539,1.916
-0.689,-0.039,0.642,13.112,6.317,1.855
-0.691,-0.038,0.643,13.082,6.083,1.782
-0.692,-0.037,0.644,13.018,5.846,1.697
-0.694,-0.035,0.645,12.923,5.605,1.595
-0.696,-0.034,0.645,12.785,5.364,1.487
-0.697,-0.032,0.645,12.615,5.115,1.383
-0.699,-0.031,0.646,12.390,4.859,1.286
-0.701,-0.029,0.646,12.163,4.605,1.188
-0.703,-0.028,0.646,11.946,4.356,1.099
-0.704,-0.028,0.647,11.747,4.117,1.028
-0.706,-0.027,0.648,11.592,3.878,0.941
-0.708,-0.026,0.649,11.468,3.644,0.845
-0.709,-0.026,0.650,11.364,3.428,0.750
-0.709,-0.025,0.651,11.272,3.233,0.669
-0.710,-0.024,0.653,11.182,3.073,0.597
-0.710,-0.023,0.654,11.069,2.926,0.525
-0.711,-0.022,0.655,10.917,2.801,0.465
-0.712,-0.020,0.655,10.691,2.676,0.422
-0.712,-0.019,0.656,10.388,2.543,0.395
-0.713,-0.017,0.656,9.946,2.398,0.392
-0.713,-0.016,0.656,9.420,2.234,0.408
-0.714,-0.015,0.655,8.847,2.050,0.437
-0.714,-0.014,0.655,8.264,1.845,0.485
-0.715,-0.014,0.655,7.697,1.630,0.536
-0.715,-0.014,0.656,7.144,1.434,0.614
-0.714,-0.014,0.657,6.648,1.264,0.718
-0.714,-0.014,0.657,6.251,1.115,0.826
-0.714,-0.014,0.658,5.926,0.997,0.948
-0.714,-0.014,0.659,5.670,0.912,1.086
-0.713,-0.015,0.659,5.476,0.853,1.237
-0.714,-0.015,0.659,5.325,0.807,1.394
-0.714,-0.014,0.659,5.202,0.760,1.555
-0.714,-0.014,0.659,5.104,0.713,1.730
-0.715,-0.013,0.660,5.014,0.656,1.932
-0.715,-0.012,0.660,4.922,0.590,2.147
-0.716,-0.012,0.661,4.809,0.522,2.369
-0.717,-0.011,0.661,4.654,0.449,2.589
-0.717,-0.010,0.662,4.468,0.383,2.809
-0.718,-0.009,0.662,4.260,0.322,3.010
-0.719,-0.008,0.663,4.044,0.264,3.202
-0.720,-0.007,0.664,3.831,0.201,3.373
-0.722,-0.006,0.665,3.634,0.124,3.525
-0.723,-0.006,0.666,3.459,0.039,3.663
-0.724,-0.005,0.667,3.305,-0.052,3.793
-0.726,-0.004,0.668,3.168,-0.159,3.918
-0.727,-0.003,0.668,3.066,-0.270,4.036
-0.729,-0.003,0.669,3.006,-0.387,4.148
-0.730,-0.002,0.670,2.975,-0.481,4.247
-0.731,-0.001,0.671,2.979,-0.557,4.329
-0.732,-0.000,0.673,3.004,-0.614,4.402
-0.734,0.001,0.674,3.045,-0.663,4.457
-0.735,0.002,0.675,3.103,-0.702,4.495
-0.736,0.003,0.676,3.167,-0.744,4.523
-0.737,0.004,0.677,3.219,-0.791,4.543
-0.739,0.005,0.678,3.251,-0.843,4.552
-0.740,0.006,0.680,3.272,-0.899,4.554

-0.408,-0.351,1.105,-2.843,-6.797,-4.269
-0.404,-0.363,1.109,-7.611,-12.437,-11.992
-0.399,-0.376,1.117,-9.864,-17.685,-18.643
-0.392,-0.385,1.131,-11.772,-22.588,-24.666
-0.386,-0.391,1.153,-13.092,-27.648,-30.165
-0.379,-0.395,1.178,-14.497,-32.839,-35.226
-0.370,-0.399,1.204,-16.117,-37.639,-40.064
-0.361,-0.407,1.228,-17.812,-41.968,-44.435
-0.351,-0.418,1.252,-19.592,-46.005,-48.040
-0.342,-0.429,1.273,-21.471,-49.514,-50.695
-0.334,-0.438,1.291,-23.304,-52.577,-52.116
-0.325,-0.448,1.307,-25.028,-54.882,-52.703
-0.317,-0.456,1.321,-26.438,-57.133,-52.765
-0.306,-0.465,1.338,-27.533,-58.676,-51.894
-0.295,-0.481,1.350,-27.557,-57.925,-51.566
-0.276,-0.497,1.366,-26.622,-56.972,-52.006
-0.266,-0.509,1.387,-25.362,-56.858,-51.788
-0.253,-0.525,1.408,-24.124,-56.443,-51.182
-0.238,-0.541,1.427,-22.522,-55.461,-50.797
-0.223,-0.557,1.448,-20.941,-54.183,-50.208
-0.209,-0.573,1.468,-19.224,-52.310,-49.441
-0.196,-0.588,1.488,-17.176,-49.928,-48.588
-0.185,-0.603,1.508,-14.758,-47.408,-47.579
-0.174,-0.616,1.527,-12.165,-44.341,-46.081
-0.163,-0.627,1.547,-9.664,-40.650,-44.248
-0.154,-0.637,1.565,-7.419,-36.522,-42.146
-0.144,-0.645,1.582,-5.587,-32.186,-39.770
-0.135,-0.654,1.595,-4.142,-27.461,-37.177
-0.125,-0.663,1.604,-2.850,-21.996,-34.548
-0.114,-0.672,1.609,-1.547,-15.320,-31.970
-0.102,-0.683,1.610,-0.137,-7.496,-29.390
-0.090,-0.694,1.609,1.750,1.352,-27.016
-0.079,-0.705,1.605,4.173,11.033,-24.732
-0.068,-0.716,1.600,7.289,21.241,-22.632
-0.057,-0.726,1.593,11.185,32.223,-20.701
-0.048,-0.735,1.583,15.849,43.149,-19.001
-0.041,-0.743,1.573,21.090,54.054,-17.366
-0.034,-0.748,1.560,26.785,64.677,-15.864
-0.029,-0.751,1.547,32.357,74.869,-14.433
-0.025,-0.752,1.532,37.574,84.588,-12.979
-0.022,-0.752,1.514,42.330,93.973,-11.529
-0.020,-0.751,1.494,46.672,102.589,-10.154
-0.020,-0.749,1.474,50.581,110.269,-8.840
-0.021,-0.746,1.453,53.950,117.037,-7.675
-0.022,-0.742,1.432,56.932,122.757,-6.750
-0.023,-0.737,1.409,59.459,127.188,-6.061
-0.024,-0.731,1.385,61.522,130.792,-5.581
-0.025,-0.724,1.360,63.266,133.552,-5.305
-0.026,-0.716,1.335,64.756,135.790,-5.210
-0.027,-0.709,1.309,66.198,137.600,-5.240
-0.029,-0.701,1.282,67.594,139.087,-5.340
-0.030,-0.693,1.255,69.124,140.222,-5.501
-0.031,-0.685,1.228,70.990,141.008,-5.739
-0.033,-0.676,1.202,73.307,141.374,-6.103
-0.034,-0.667,1.177,76.327,141.333,-6.621
-0.036,-0.658,1.154,79.734,140.981,-7.218
-0.037,-0.649,1.133,83.583,140.294,-7.889
-0.038,-0.639,1.112,87.683,139.550,-8.569
-0.039,-0.630,1.092,91.969,138.841,-9.209
-0.041,-0.620,1.072,96.255,138.255,-9.716
-0.042,-0.609,1.053,100.147,137.629,-10.177
-0.045,-0.597,1.033,103.208,135.912,-10.593
-0.049,-0.583,1.013,105.260,134.963,-10.944
-0.054,-0.568,0.993,106.406,133.858,-11.185
-0.058,-0.554,0.972,106.695,132.566,-11.338
-0.063,-0.539,0.952,106.483,131.096,-11.462
-0.068,-0.524,0.932,105.815,129.443,-11.573
-0.074,-0.510,0.915,104.750,127.497,-11.723
-0.080,-0.495,0.899,103.396,125.456,-11.961
-0.086,-0.481,0.883,101.794,123.367,-12.284
-0.092,-0.469,0.869,100.022,121.311,-12.565
-0.098,-0.458,0.854,98.234,119.330,-12.730
-0.104,-0.448,0.841,96.462,117.428,-12.761
-0.111,-0.437,0.827,94.692,115.601,-12.651
-0.117,-0.427,0.814,92.932,113.863,-12.403
-0.123,-0.417,0.801,91.182,112.219,-12.050
-0.129,-0.407,0.788,89.447,110.660,-11.612
-0.137,-0.396,0.775,87.734,109.131,-11.191
-0.145,-0.385,0.762,86.027,107.552,-10.836
-0.154,-0.373,0.749,84.291,105.762,-10.559
-0.164,-0.361,0.736,82.514,103.788,-10.349
-0.175,-0.348,0.724,80.697,101.600,-10.190
-0.185,-0.336,0.714,78.890,99.266,-10.077
-0.196,-0.325,0.704,76.953,96.879,-9.983
-0.207,-0.313,0.695,74.741,94.481,-9.863
-0.218,-0.301,0.687,72.274,92.134,-9.692
-0.230,-0.290,0.679,69.558,89.684,-9.499
-0.241,-0.280,0.671,66.557,86.935,-9.261
-0.252,-0.270,0.664,63.349,84.005,-8.996
-0.263,-0.260,0.656,60.021,80.956,-8.689
-0.274,-0.251,0.649,56.623,77.721,-8.349
-0.285,-0.243,0.641,53.268,74.374,-8.003
-0.296,-0.234,0.634,49.998,72.120,-7.972
-0.305,-0.225,0.628,46.866,70.317,-7.940
-0.315,-0.217,0.623,44.006,68.413,-7.883
-0.326,-0.210,0.619,41.375,66.457,-7.835
-0.336,-0.202,0.615,38.861,64.510,-7.765
-0.346,-0.195,0.613,36.392,62.555,-7.642
-0.357,-0.187,0.611,33.911,60.571,-7.438
-0.367,-0.181,0.609,31.407,58.609,-7.096
-0.378,-0.174,0.607,29.011,56.694,-6.640
-0.388,-0.168,0.605,26.805,54.834,-6.047
-0.397,-0.163,0.603,24.811,53.044,-5.344
-0.407,-0.158,0.601,23.131,51.270,-4.602
-0.416,-0.154,0.599,21.800,49.537,-2.974
-0.425,-0.150,0.597,20.952,47.909,-2.170
-0.434,-0.147,0.596,20.435,46.345,-1.433
-0.443,-0.144,0.596,20.163,44.749,-0.797
-0.451,-0.141,0.596,20.057,43.118,-0.254
-0.459,-0.137,0.597,20.079,41.471,0.208
-0.467,-0.133,0.598,20.196,39.814,0.587
-0.476,-0.129,0.600,20.316,38.172,0.938
-0.484,-0.124,0.602,20.399,36.567,1.265
-0.492,-0.120,0.604,20.378,34.980,1.582
-0.499,-0.115,0.606,20.203,33.349,1.863
-0.507,-0.109,0.608,19.840,31.640,2.108
-0.515,-0.104,0.610,19.213,29.843,2.288
-0.523,-0.099,0.612,18.370,27.990,2.422
-0.530,-0.095,0.614,17.421,26.148,2.521
-0.537,-0.092,0.615,16.506,24.334,2.572
-0.544,-0.090,0.617,15.687,22.530,2.609
-0.551,-0.088,0.620,14.990,20.796,2.647
-0.556,-0.086,0.623,14.458,19.218,2.677
-0.562,-0.085,0.627,14.079,17.758,2.713
-0.567,-0.084,0.631,13.816,16.441,2.750
-0.571,-0.083,0.635,13.631,15.248,2.777
-0.576,-0.081,0.639,13.478,14.160,2.795
-0.580,-0.079,0.642,13.311,13.168,2.816
-0.585,-0.076,0.645,13.113,12.219,2.835
-0.589,-0.074,0.648,12.869,11.309,2.855
-0.594,-0.071,0.651,12.573,10.394,2.883
-0.598,-0.069,0.654,12.218,9.493,2.908
-0.602,-0.066,0.657,11.814,8.596,2.950
-0.606,-0.064,0.661,11.383,7.714,3.001
-0.609,-0.062,0.665,10.964,6.834,3.062
-0.613,-0.061,0.669,10.592,5.967,3.127
-0.616,-0.060,0.673,10.253,5.147,3.213
-0.619,-0.058,0.678,9.962,4.408,3.332
-0.622,-0.058,0.682,9.769,3.742,3.472
-0.624,-0.057,0.686,9.670,3.151,3.604
-0.627,-0.057,0.690,9.668,2.601,3.703
-0.630,-0.055,0.693,9.684,2.101,3.798
-0.632,-0.054,0.696,9.722,1.662,3.889
-0.634,-0.052,0.699,9.769,1.308,3.962
-0.636,-0.050,0.702,9.804,1.021,4.004
-0.637,-0.048,0.705,9.836,0.801,4.029
-0.639,-0.046,0.708,9.866,0.614,4.039
-0.641,-0.044,0.711,9.837,0.452,4.040
-0.643,-0.041,0.713,9.750,0.296,4.015
-0.645,-0.039,0.716,9.587,0.145,3.962
-0.646,-0.037,0.719,9.360,-0.011,3.894
-0.648,-0.034,0.721,9.061,-0.168,3.808
-0.650,-0.032,0.723,8.703,-0.330,3.721
-0.651,-0.030,0.725,8.280,-0.482,3.614
-0.652,-0.029,0.726,7.822,-0.622,3.489
-0.654,-0.027,0.728,7.365,-0.746,3.355
-0.655,-0.026,0.729,6.932,-0.851,3.216
-0.656,-0.025,0.731,6.498,-0.927,3.080
-0.657,-0.023,0.732,6.086,-0.983,2.957
-0.659,-0.022,0.733,5.714,-1.020,2.830
-0.659,-0.021,0.734,5.390,-1.040,2.699
-0.660,-0.020,0.735,5.121,-1.042,2.560
-0.661,-0.019,0.736,4.885,-1.027,2.430
-0.661,-0.018,0.737,4.675,-1.004,2.308
-0.662,-0.018,0.738,4.504,-0.974,2.202
-0.662,-0.017,0.739,4.367,-0.940,2.102
-0.663,-0.016,0.739,4.250,-0.908,2.014
-0.663,-0.016,0.740,4.147,-0.876,1.929
-0.663,-0.015,0.741,4.067,-0.842,1.853
-0.664,-0.014,0.741,3.996,-0.815,1.787
-0.664,-0.014,0.742,3.942,-0.794,1.727
-0.664,-0.013,0.742,3.895,-0.779,1.671
-0.665,-0.012,0.742,3.859,-0.764,1.625
-0.665,-0.011,0.742,3.838,-0.737,1.577
-0.665,-0.010,0.743,3.835,-0.698,1.531
-0.665,-0.010,0.743,3.833,-0.665,1.475
-0.665,-0.009,0.743,3.828,-0.611,1.434
-0.665,-0.008,0.743,3.845,-0.566,1.376
-0.665,-0.007,0.743,3.872,-0.544,1.301
-0.666,-0.006,0.743,3.893,-0.507,1.239
-0.666,-0.005,0.743,3.888,-0.467,1.193
-0.666,-0.004,0.743,3.794,-0.419,1.193
-0.667,-0.003,0.744,3.654,-0.353,1.228
-0.667,-0.002,0.744,3.520,-0.310,1.231
-0.667,-0.001,0.744,3.401,-0.311,1.196
-0.667,-0.000,0.744,3.270,-0.306,1.153
-0.667,0.001,0.743,3.123,-0.293,1.109
-0.667,0.002,0.743,2.930,-0.280,1.081
-0.668,0.002,0.742,2.731,-0.271,1.066
-0.669,0.003,0.741,2.550,-0.276,1.039
-0.670,0.003,0.741,2.412,-0.299,1.013
-0.670,0.004,0.741,2.316,-0.333,0.983
-0.671,0.003,0.741,2.287,-0.367,0.943
-0.671,0.003,0.742,2.327,-0.400,0.888
-0.671,0.003,0.742,2.411,-0.421,0.834
-0.671,0.004,0.742,2.516,-0.426,0.784
-0.671,0.004,0.742,2.639,-0.432,0.727
-0.671,0.005,0.742,2.765,-0.439,0.674
-0.671,0.006,0.742,2.876,-0.446,0.633

-0.575,-0.155,1.139,-6.920,-12.203,-4.969
-0.566,-0.168,1.150,-13.987,-22.935,-9.903
-0.556,-0.180,1.163,-18.553,-32.759,-14.198
-0.545,-0.189,1.177,-21.831,-41.302,-18.123
-0.532,-0.198,1.198,-24.361,-49.427,-21.679
-0.519,-0.207,1.222,-26.555,-57.381,-24.937
-0.505,-0.218,1.250,-28.701,-64.936,-27.786
-0.491,-0.231,1.279,-31.158,-71.633,-30.250
-0.474,-0.246,1.308,-33.863,-76.787,-32.353
-0.457,-0.264,1.334,-36.388,-80.196,-34.075
-0.439,-0.287,1.357,-37.455,-81.738,-35.207
-0.420,-0.312,1.379,-37.285,-81.673,-36.089
-0.399,-0.340,1.401,-36.296,-80.003,-36.788
-0.378,-0.366,1.423,-34.315,-77.976,-37.135
-0.359,-0.388,1.447,-30.718,-74.873,-37.019
-0.343,-0.409,1.472,-26.375,-70.752,-36.661
-0.332,-0.427,1.497,-21.791,-65.441,-36.132
-0.319,-0.443,1.523,-17.382,-59.490,-35.481
-0.307,-0.458,1.547,-13.390,-53.553,-34.936
-0.295,-0.471,1.568,-10.179,-46.339,-33.940
-0.284,-0.483,1.586,-6.529,-38.522,-32.391
-0.272,-0.498,1.601,-2.700,-29.048,-30.615
-0.265,-0.508,1.613,1.387,-20.570,-29.062
-0.257,-0.517,1.621,5.310,-12.301,-27.304
-0.250,-0.526,1.625,9.763,-4.164,-25.557
-0.243,-0.534,1.625,14.681,5.146,-23.656
-0.238,-0.540,1.622,19.784,14.545,-21.863
-0.234,-0.545,1.616,24.767,23.284,-20.467
-0.230,-0.547,1.607,29.311,31.496,-19.201
-0.226,-0.548,1.596,33.407,39.590,-17.985
-0.223,-0.549,1.582,37.261,47.260,-16.916
-0.221,-0.549,1.566,40.913,54.321,-15.994
-0.219,-0.549,1.550,44.308,60.701,-15.202
-0.217,-0.547,1.532,47.383,66.295,-14.618
-0.215,-0.545,1.515,50.141,71.068,-14.243
-0.213,-0.543,1.498,52.524,74.880,-14.022
-0.210,-0.540,1.481,54.458,78.175,-13.908
-0.206,-0.537,1.463,56.029,81.137,-13.859
-0.201,-0.534,1.445,57.303,83.992,-13.835
-0.196,-0.533,1.426,58.488,86.814,-13.847
-0.191,-0.531,1.405,59.631,89.647,-13.945
-0.187,-0.528,1.383,60.540,92.367,-14.101
-0.182,-0.524,1.359,61.453,94.723,-14.357
-0.178,-0.519,1.335,62.548,96.948,-14.786
-0.175,-0.514,1.310,63.882,99.205,-15.296
-0.172,-0.508,1.286,65.551,101.322,-15.879
-0.171,-0.502,1.261,67.673,103.155,-16.531
-0.170,-0.496,1.238,70.345,104.688,-17.208
-0.170,-0.490,1.216,75.005,105.928,-17.876
-0.170,-0.483,1.195,78.715,106.923,-18.532
-0.170,-0.475,1.176,82.532,107.724,-19.156
-0.170,-0.466,1.157,86.120,108.366,-19.745
-0.170,-0.457,1.140,89.354,108.851,-20.311
-0.170,-0.448,1.122,92.163,109.180,-20.838
-0.171,-0.438,1.103,94.339,109.294,-21.360
-0.172,-0.429,1.084,95.930,109.341,-21.804
-0.173,-0.418,1.064,96.991,109.195,-22.258
-0.175,-0.408,1.045,97.563,108.855,-22.714
-0.177,-0.397,1.025,97.611,108.431,-23.092
-0.180,-0.386,1.007,97.255,107.868,-23.383
-0.184,-0.375,0.989,96.726,107.104,-23.627
-0.188,-0.364,0.972,96.028,106.092,-23.844
-0.192,-0.354,0.957,95.224,104.932,-24.015
-0.196,-0.344,0.943,94.391,103.607,-24.168
-0.199,-0.334,0.931,93.473,102.272,-24.291
-0.202,-0.324,0.918,92.414,100.987,-24.307
-0.205,-0.314,0.904,91.087,99.784,-24.186
-0.209,-0.304,0.890,89.581,98.658,-23.924
-0.213,-0.295,0.876,87.963,97.590,-23.526
-0.218,-0.285,0.861,86.289,96.494,-23.063
-0.224,-0.276,0.845,84.610,95.489,-22.609
-0.230,-0.267,0.830,82.942,94.517,-22.196
-0.237,-0.258,0.815,81.302,93.387,-21.838
-0.245,-0.248,0.802,79.683,91.888,-21.579
-0.254,-0.238,0.790,78.072,90.181,-21.395
-0.263,-0.228,0.779,76.465,88.304,-21.252
-0.271,-0.219,0.769,74.838,86.339,-21.070
-0.280,-0.209,0.761,73.092,84.339,-20.837
-0.288,-0.200,0.752,71.102,82.355,-20.553
-0.296,-0.192,0.744,68.871,80.019,-20.240
-0.304,-0.183,0.735,66.338,77.442,-19.947
-0.312,-0.173,0.727,62.345,74.746,-19.709
-0.319,-0.165,0.718,59.191,71.967,-19.501
-0.327,-0.156,0.709,55.959,69.096,-19.327
-0.335,-0.148,0.701,52.671,66.561,-19.310
-0.342,-0.141,0.692,49.390,64.692,-19.363
-0.350,-0.134,0.684,46.197,62.786,-19.414
-0.359,-0.127,0.678,43.100,60.775,-19.466
-0.367,-0.121,0.672,40.168,58.703,-19.540
-0.375,-0.116,0.668,37.377,56.570,-19.550
-0.383,-0.112,0.664,34.770,54.479,-19.496
-0.391,-0.107,0.661,32.349,52.452,-19.329
-0.398,-0.104,0.658,30.111,50.569,-19.009
-0.406,-0.100,0.655,28.165,48.888,-18.416
-0.413,-0.097,0.653,26.538,47.378,-17.624
-0.420,-0.094,0.650,25.250,46.031,-16.666
-0.427,-0.092,0.648,24.335,44.813,-15.595
-0.434,-0.090,0.646,23.741,43.627,-14.439
-0.441,-0.088,0.645,23.410,42.442,-13.271
-0.449,-0.085,0.645,23.251,41.218,-12.169
-0.457,-0.083,0.645,23.166,39.908,-11.164
-0.465,-0.080,0.646,23.118,38.455,-10.254
-0.473,-0.077,0.648,23.073,36.963,-9.410
-0.480,-0.073,0.650,22.981,35.467,-8.621
-0.488,-0.070,0.652,22.809,33.956,-7.890
-0.495,-0.066,0.655,22.545,32.425,-7.202
-0.502,-0.062,0.657,22.160,30.874,-6.573
-0.509,-0.058,0.659,21.648,29.261,-6.014
-0.516,-0.055,0.661,21.007,27.638,-5.527
-0.523,-0.051,0.663,20.259,26.002,-5.121
-0.531,-0.048,0.665,19.400,24.337,-4.794
-0.538,-0.045,0.668,18.547,22.698,-4.501
-0.545,-0.043,0.671,17.767,21.117,-4.235
-0.551,-0.041,0.674,17.109,19.657,-3.969
-0.556,-0.040,0.678,16.615,18.347,-3.689
-0.561,-0.039,0.681,16.263,17.171,-3.373
-0.567,-0.037,0.685,15.985,16.118,-2.997
-0.572,-0.035,0.689,15.689,15.208,-2.572
-0.577,-0.032,0.692,15.360,14.431,-2.140
-0.582,-0.030,0.696,14.998,13.707,-1.741
-0.586,-0.027,0.699,14.587,13.005,-1.377
-0.591,-0.025,0.702,14.154,12.316,-1.059
-0.595,-0.022,0.704,13.716,11.641,-0.773
-0.600,-0.020,0.707,13.240,11.001,-0.523
-0.603,-0.018,0.709,12.717,10.402,-0.295
-0.607,-0.016,0.712,12.201,9.838,-0.101
-0.610,-0.014,0.715,11.714,9.318,0.068
-0.613,-0.013,0.718,11.303,8.857,0.234
-0.615,-0.011,0.721,10.944,8.427,0.395
-0.617,-0.010,0.723,10.638,8.025,0.546
-0.619,-0.008,0.725,10.375,7.642,0.682
-0.621,-0.007,0.726,10.177,7.270,0.791
-0.623,-0.005,0.728,10.060,6.931,0.879
-0.625,-0.004,0.730,9.986,6.652,0.989
-0.626,-0.002,0.731,9.881,6.416,1.122
-0.628,0.001,0.732,9.742,6.248,1.271
-0.629,0.003,0.732,9.577,6.174,1.462
-0.630,0.005,0.733,9.439,6.195,1.684
-0.631,0.006,0.734,9.344,6.242,1.908
-0.633,0.008,0.736,9.280,6.301,2.128
-0.635,0.009,0.737,9.236,6.355,2.326
-0.637,0.011,0.738,9.189,6.396,2.502
-0.639,0.012,0.738,9.107,6.406,2.606
-0.641,0.015,0.738,8.966,6.373,2.644
-0.643,0.017,0.737,8.763,6.301,2.640
-0.644,0.020,0.737,8.517,6.192,2.610
-0.646,0.022,0.738,8.221,6.050,2.568
-0.647,0.023,0.739,7.900,5.860,2.518
-0.649,0.025,0.739,7.542,5.647,2.452
-0.650,0.026,0.739,7.158,5.431,2.377
-0.651,0.027,0.739,6.799,5.240,2.293
-0.651,0.029,0.738,6.488,5.069,2.185
-0.652,0.030,0.738,6.268,4.909,2.077
-0.654,0.031,0.738,6.095,4.747,1.978
-0.655,0.032,0.738,5.917,4.595,1.907
-0.656,0.034,0.738,5.689,4.442,1.858
-0.658,0.036,0.737,5.405,4.287,1.838
-0.659,0.038,0.737,5.097,4.136,1.823
-0.659,0.040,0.738,4.784,3.989,1.813
-0.660,0.041,0.738,4.461,3.836,1.780
-0.661,0.042,0.739,4.123,3.694,1.759
-0.662,0.043,0.739,3.778,3.559,1.740
-0.663,0.044,0.739,3.480,3.422,1.696
-0.664,0.045,0.739,3.221,3.309,1.653
-0.665,0.045,0.739,2.981,3.217,1.613
-0.666,0.046,0.739,2.733,3.149,1.572
-0.666,0.047,0.738,2.481,3.101,1.528
-0.667,0.047,0.737,2.211,3.057,1.480
-0.667,0.048,0.736,1.937,2.994,1.422
-0.668,0.049,0.735,1.679,2.902,1.351
-0.668,0.050,0.734,1.452,2.771,1.263
-0.669,0.050,0.733,1.246,2.624,1.187
-0.669,0.050,0.732,1.058,2.486,1.129
-0.670,0.051,0.732,0.877,2.354,1.088
-0.670,0.051,0.731,0.705,2.228,1.065
-0.671,0.051,0.731,0.533,2.110,1.054
-0.671,0.051,0.731,0.355,2.009,1.050
-0.670,0.052,0.730,0.146,1.917,1.062
-0.670,0.053,0.730,-0.101,1.820,1.081
-0.670,0.053,0.730,-0.382,1.729,1.098
-0.669,0.054,0.729,-0.669,1.651,1.117
-0.669,0.054,0.729,-0.938,1.572,1.126
-0.669,0.054,0.728,-1.186,1.490,1.132
-0.670,0.054,0.728,-1.395,1.391,1.135
-0.670,0.054,0.728,-1.559,1.269,1.139
-0.671,0.054,0.728,-1.684,1.130,1.143
-0.671,0.054,0.729,-1.773,0.977,1.160
-0.672,0.054,0.729,-1.839,0.819,1.182
-0.672,0.055,0.730,-1.906,0.659,1.209
-0.673,0.055,0.730,-1.990,0.500,1.239
-0.673,0.056,0.731,-2.104,0.337,1.280
-0.674,0.056,0.731,-2.228,0.181,1.320
-0.674,0.057,0.732,-2.337,0.039,1.358
-0.675,0.057,0.732,-2.441,-0.089,1.380
-0.675,0.057,0.733,-2.515,-0.219,1.391
-0.676,0.058,0.733,-2.576,-0.344,1.397
-0.677,0.058,0.734,-2.599,-0.462,1.391
-0.677,0.058,0.735,-2.589,-0.572,1.381
-0.678,0.058,0.737,-2.554,-0.671,1.370

-0.414,-0.389,1.075,-6.308,-10.414,-8.406
-0.413,-0.395,1.093,-9.897,-19.019,-16.675
-0.412,-0.401,1.115,-13.521,-26.475,-23.849
-0.408,-0.409,1.141,-17.343,-33.211,-30.067
-0.403,-0.420,1.172,-20.972,-39.321,-35.599
-0.395,-0.434,1.207,-24.107,-44.455,-40.496
-0.384,-0.450,1.246,-26.614,-48.956,-44.577
-0.371,-0.471,1.288,-28.453,-52.922,-47.776
-0.355,-0.496,1.329,-29.759,-56.313,-50.011
-0.337,-0.525,1.368,-30.471,-58.898,-51.288
-0.318,-0.557,1.405,-30.671,-60.620,-51.495
-0.298,-0.590,1.437,-30.389,-60.545,-51.596
-0.273,-0.624,1.463,-30.102,-58.231,-51.158
-0.250,-0.656,1.485,-29.505,-54.459,-50.279
-0.230,-0.687,1.503,-28.640,-49.287,-48.677
-0.213,-0.714,1.518,-27.509,-42.798,-46.457
-0.199,-0.737,1.530,-26.263,-35.738,-43.774
-0.189,-0.754,1.538,-25.166,-29.288,-40.825
-0.180,-0.768,1.544,-24.355,-23.021,-36.769
-0.171,-0.783,1.546,-23.690,-15.664,-30.781
-0.163,-0.800,1.546,-22.482,-9.353,-25.129
-0.158,-0.812,1.546,-21.046,-3.133,-19.519
-0.153,-0.820,1.544,-19.555,2.685,-13.888
-0.149,-0.828,1.540,-17.765,7.676,-9.000
-0.144,-0.835,1.532,-15.786,13.045,-3.884
-0.140,-0.843,1.521,-13.045,17.832,0.979
-0.137,-0.852,1.508,-9.195,22.105,5.289
-0.134,-0.859,1.493,-3.650,26.275,9.281
-0.130,-0.865,1.475,3.135,31.144,13.575
-0.126,-0.871,1.457,11.790,36.665,17.825
-0.123,-0.877,1.438,22.478,42.485,21.461
-0.121,-0.878,1.419,34.220,48.494,24.806
-0.120,-0.878,1.400,46.502,54.655,28.180
-0.119,-0.876,1.381,59.454,60.694,31.208
-0.118,-0.872,1.363,71.866,66.836,34.234
-0.119,-0.866,1.346,83.524,72.716,36.874
-0.121,-0.857,1.331,93.944,77.461,38.781
-0.124,-0.845,1.316,102.486,81.136,40.015
-0.129,-0.829,1.301,108.896,83.989,40.780
-0.133,-0.813,1.285,113.469,86.172,40.913
-0.138,-0.796,1.270,116.515,87.837,40.668
-0.144,-0.779,1.254,118.621,89.190,40.188
-0.150,-0.763,1.239,120.082,90.434,39.561
-0.156,-0.748,1.223,121.134,91.624,38.815
-0.161,-0.734,1.207,121.996,92.750,37.933
-0.167,-0.721,1.190,122.800,93.742,36.948
-0.172,-0.708,1.173,123.707,94.651,35.821
-0.177,-0.696,1.156,124.618,95.470,34.447
-0.182,-0.684,1.138,125.266,96.130,32.773
-0.186,-0.671,1.121,125.606,96.650,30.640
-0.190,-0.658,1.103,125.739,97.077,28.046
-0.194,-0.644,1.086,125.872,97.626,25.330
-0.197,-0.632,1.068,126.276,98.453,22.816
-0.201,-0.620,1.051,127.495,99.367,20.285
-0.205,-0.609,1.036,129.427,100.150,17.633
-0.209,-0.597,1.021,131.893,100.765,14.873
-0.212,-0.584,1.007,134.552,101.205,11.963
-0.214,-0.570,0.993,136.956,101.535,8.952
-0.215,-0.556,0.978,138.838,101.721,5.931
-0.217,-0.541,0.964,140.056,101.842,2.988
-0.218,-0.527,0.948,140.533,102.209,0.347
-0.219,-0.513,0.933,140.746,102.587,-2.389
-0.220,-0.499,0.919,140.440,102.608,-5.269
-0.222,-0.483,0.905,139.314,102.370,-7.732
-0.224,-0.469,0.892,137.588,102.133,-9.509
-0.225,-0.456,0.878,135.631,101.902,-10.892
-0.226,-0.443,0.864,133.555,101.591,-12.237
-0.227,-0.430,0.850,131.367,100.954,-13.658
-0.229,-0.417,0.837,128.931,99.792,-15.027
-0.231,-0.403,0.823,126.299,98.497,-16.262
-0.234,-0.390,0.810,123.583,97.201,-17.333
-0.236,-0.379,0.796,120.848,95.890,-18.188
-0.239,-0.367,0.783,118.162,94.478,-18.898
-0.242,-0.356,0.770,115.535,92.961,-19.469
-0.246,-0.346,0.757,112.969,91.408,-19.904
-0.250,-0.336,0.746,110.466,89.825,-20.228
-0.255,-0.325,0.735,108.027,88.222,-20.452
-0.259,-0.314,0.725,105.607,86.607,-20.606
-0.264,-0.304,0.715,102.890,84.971,-20.662
-0.270,-0.294,0.703,99.902,83.249,-20.615
-0.277,-0.285,0.692,96.676,81.476,-20.488
-0.284,-0.276,0.680,93.042,79.673,-20.303
-0.292,-0.266,0.669,89.096,77.545,-20.127
-0.300,-0.257,0.657,84.925,75.102,-20.050
-0.307,-0.247,0.647,80.586,72.527,-20.026
-0.315,-0.239,0.637,76.351,69.783,-20.014
-0.323,-0.231,0.628,72.356,66.823,-19.998
-0.332,-0.223,0.620,68.730,63.690,-19.944
-0.339,-0.216,0.613,65.429,60.565,-19.815
-0.347,-0.209,0.607,62.406,57.604,-19.613
-0.354,-0.203,0.601,59.611,54.923,-19.292
-0.362,-0.196,0.595,56.969,52.412,-18.855
-0.369,-0.189,0.590,54.383,50.042,-18.277
-0.377,-0.183,0.584,51.842,47.821,-17.568
-0.386,-0.177,0.579,49.367,45.624,-16.790
-0.395,-0.171,0.574,46.997,43.448,-15.877
-0.404,-0.166,0.571,44.871,41.227,-14.902
-0.413,-0.160,0.569,42.979,39.005,-13.824
-0.422,-0.155,0.569,41.357,36.789,-12.553
-0.430,-0.151,0.569,40.184,34.592,-11.177
-0.437,-0.147,0.570,39.308,32.433,-9.770
-0.444,-0.142,0.572,38.582,30.319,-8.358
-0.451,-0.137,0.574,37.897,28.222,-6.986
-0.459,-0.132,0.576,37.204,26.105,-5.669
-0.468,-0.127,0.578,36.443,23.994,-4.421
-0.476,-0.121,0.580,35.624,21.949,-3.191
-0.484,-0.116,0.582,34.786,19.982,-2.014
-0.492,-0.111,0.584,33.959,18.122,-0.943
-0.499,-0.106,0.587,33.179,16.289,-0.030
-0.507,-0.100,0.590,32.376,14.452,0.689
-0.515,-0.094,0.595,31.475,12.613,1.250
-0.522,-0.088,0.600,30.475,10.737,1.638
-0.529,-0.082,0.606,29.338,8.883,1.913
-0.535,-0.077,0.612,28.109,7.114,2.097
-0.542,-0.072,0.618,26.809,5.426,2.204
-0.548,-0.067,0.623,25.472,3.823,2.257
-0.553,-0.063,0.629,24.117,2.330,2.261
-0.559,-0.059,0.634,22.812,0.916,2.248
-0.565,-0.055,0.640,21.609,-0.408,2.217
-0.570,-0.052,0.645,20.523,-1.657,2.167
-0.575,-0.049,0.650,19.522,-2.791,2.107
-0.580,-0.047,0.655,18.601,-3.823,2.051
-0.584,-0.044,0.660,17.809,-4.716,2.030
-0.588,-0.042,0.665,17.238,-5.473,2.051
-0.592,-0.040,0.670,16.802,-6.104,2.111
-0.595,-0.037,0.675,16.463,-6.576,2.217
-0.598,-0.035,0.680,16.189,-6.945,2.335
-0.601,-0.032,0.685,15.936,-7.246,2.442
-0.604,-0.029,0.690,15.658,-7.509,2.532
-0.607,-0.026,0.695,15.341,-7.766,2.573
-0.610,-0.023,0.699,14.978,-7.997,2.603
-0.613,-0.020,0.703,14.575,-8.218,2.598
-0.615,-0.018,0.706,14.124,-8.408,2.561
-0.617,-0.016,0.709,13.641,-8.552,2.516
-0.619,-0.014,0.711,13.191,-8.658,2.430
-0.620,-0.013,0.714,12.766,-8.732,2.319
-0.622,-0.011,0.717,12.357,-8.776,2.190
-0.623,-0.010,0.720,11.950,-8.803,2.046
-0.624,-0.008,0.723,11.545,-8.815,1.901
-0.625,-0.007,0.725,11.209,-8.823,1.748
-0.625,-0.006,0.728,10.927,-8.830,1.582
-0.626,-0.005,0.730,10.653,-8.810,1.423
-0.627,-0.003,0.733,10.341,-8.783,1.275
-0.627,-0.002,0.736,9.973,-8.750,1.146
-0.628,-0.000,0.739,9.544,-8.709,1.037
-0.629,0.001,0.741,9.106,-8.668,0.943
-0.630,0.002,0.742,8.663,-8.626,0.860
-0.631,0.003,0.744,8.230,-8.573,0.789
-0.632,0.004,0.745,7.811,-8.503,0.722
-0.633,0.005,0.746,7.412,-8.423,0.661
-0.634,0.006,0.747,7.073,-8.337,0.599
-0.635,0.006,0.748,6.825,-8.247,0.529
-0.636,0.007,0.749,6.633,-8.156,0.460
-0.636,0.007,0.751,6.479,-8.072,0.398
-0.637,0.007,0.753,6.372,-7.981,0.330
-0.637,0.007,0.755,6.304,-7.890,0.265
-0.638,0.008,0.757,6.259,-7.792,0.204
-0.638,0.008,0.759,6.224,-7.691,0.138
-0.638,0.008,0.761,6.189,-7.590,0.078
-0.639,0.009,0.762,6.154,-7.489,0.010
-0.639,0.010,0.764,6.074,-7.389,-0.053
-0.639,0.011,0.765,5.937,-7.264,-0.108
-0.638,0.012,0.767,5.766,-7.134,-0.169
-0.638,0.013,0.768,5.559,-6.992,-0.217
-0.638,0.014,0.768,5.314,-6.837,-0.241
-0.638,0.014,0.769,5.072,-6.684,-0.259
-0.638,0.015,0.770,4.840,-6.544,-0.282
-0.638,0.015,0.771,4.636,-6.428,-0.301
-0.638,0.016,0.772,4.449,-6.316,-0.309
-0.638,0.016,0.773,4.306,-6.201,-0.310
-0.638,0.016,0.774,4.199,-6.077,-0.291
-0.638,0.016,0.775,4.113,-5.922,-0.259
-0.638,0.017,0.776,4.023,-5.758,-0.221
-0.638,0.017,0.776,3.931,-5.581,-0.182
-0.637,0.018,0.777,3.842,-5.396,-0.157
-0.637,0.019,0.777,3.697,-5.202,-0.114
-0.637,0.020,0.777,3.462,-5.037,-0.087
-0.638,0.022,0.777,3.191,-4.919,-0.084
-0.638,0.022,0.777,2.914,-4.854,-0.096
-0.638,0.023,0.777,2.663,-4.813,-0.107
-0.638,0.023,0.777,2.441,-4.769,-0.106
-0.638,0.023,0.777,2.258,-4.720,-0.113
-0.638,0.023,0.777,2.115,-4.685,-0.127
-0.638,0.023,0.778,1.983,-4.650,-0.138
-0.638,0.023,0.778,1.859,-4.605,-0.146
-0.638,0.024,0.777,1.730,-4.547,-0.151
-0.637,0.024,0.777,1.591,-4.489,-0.151
-0.637,0.025,0.776,1.435,-4.447,-0.147
-0.637,0.025,0.776,1.283,-4.411,-0.149
-0.637,0.025,0.775,1.143,-4.395,-0.150
-0.637,0.025,0.775,1.016,-4.341,-0.106
-0.636,0.025,0.775,0.930,-4.285,-0.050
-0.636,0.025,0.775,0.898,-4.285,-0.020
-0.635,0.025,0.775,0.890,-4.297,0.025
-0.634,0.025,0.775,0.901,-4.310,0.091
-0.633,0.025,0.774,0.918,-4.311,0.190
-0.632,0.025,0.774,0.938,-4.290,0.304
-0.631,0.026,0.773,0.929,-4.241,0.451
-0.630,0.026,0.773,0.895,-4.230,0.590

-0.218,-0.632,1.027,-5.430,-11.189,-11.662
-0.217,-0.640,1.046,-11.914,-18.583,-23.123
-0.215,-0.651,1.063,-19.223,-26.363,-33.654
-0.212,-0.663,1.081,-27.144,-34.725,-43.268
-0.206,-0.677,1.102,-35.697,-43.515,-51.936
-0.197,-0.695,1.125,-43.859,-52.355,-59.458
-0.184,-0.722,1.147,-49.548,-60.704,-65.662
-0.168,-0.753,1.166,-52.187,-68.365,-70.086
-0.149,-0.785,1.183,-52.461,-75.161,-71.398
-0.129,-0.819,1.198,-51.133,-81.078,-71.566
-0.107,-0.853,1.211,-49.414,-85.203,-71.013
-0.072,-0.884,1.220,-47.335,-83.925,-70.277
-0.037,-0.912,1.231,-45.053,-81.931,-68.864
-0.005,-0.941,1.245,-42.987,-79.817,-67.435
0.023,-0.969,1.260,-41.386,-77.662,-65.590
0.049,-0.997,1.276,-40.113,-75.054,-63.062
0.073,-1.024,1.294,-39.085,-71.811,-59.708
0.096,-1.052,1.312,-38.373,-68.015,-54.981
0.117,-1.078,1.329,-37.820,-63.626,-49.160
0.135,-1.102,1.343,-37.351,-58.730,-42.210
0.151,-1.126,1.354,-36.870,-53.713,-34.534
0.166,-1.148,1.362,-36.143,-48.236,-25.413
0.180,-1.169,1.365,-35.144,-41.918,-15.407
0.192,-1.188,1.365,-33.683,-35.217,-4.826
0.204,-1.205,1.359,-31.194,-26.403,6.491
0.214,-1.219,1.352,-27.456,-16.438,18.237
0.221,-1.230,1.343,-21.898,-7.160,29.726
0.225,-1.238,1.333,-14.962,1.494,40.099
0.230,-1.241,1.321,-7.099,9.252,49.426
0.234,-1.243,1.308,1.439,16.300,58.089
0.237,-1.242,1.294,10.943,23.541,65.895
0.241,-1.240,1.279,21.318,31.348,73.075
0.243,-1.236,1.264,32.758,39.503,79.919
0.242,-1.230,1.251,44.482,47.657,86.133
0.240,-1.223,1.236,56.269,55.251,91.338
0.237,-1.215,1.221,68.106,62.407,95.618
0.233,-1.207,1.204,79.987,69.049,98.722
0.229,-1.196,1.186,91.368,74.744,100.366
0.225,-1.180,1.166,101.125,80.096,100.946
0.220,-1.162,1.146,108.602,85.259,101.119
0.213,-1.143,1.126,114.579,90.169,101.024
0.207,-1.124,1.103,119.398,95.313,100.827
0.200,-1.104,1.079,123.472,100.609,100.498
0.194,-1.084,1.055,127.098,105.807,99.813
0.186,-1.062,1.030,130.222,110.561,98.750
0.177,-1.038,1.006,132.678,114.540,97.191
0.166,-1.013,0.981,134.757,117.603,95.365
0.155,-0.989,0.957,136.865,119.796,93.775
0.149,-0.969,0.932,140.660,121.681,91.742
0.135,-0.949,0.911,144.918,122.126,89.389
0.125,-0.929,0.894,149.833,124.332,87.388
0.116,-0.910,0.875,156.798,122.459,83.503
0.103,-0.880,0.863,160.105,121.294,80.371
0.098,-0.859,0.848,162.744,123.253,78.442
0.092,-0.847,0.833,167.519,126.653,76.634
0.084,-0.832,0.818,173.890,130.159,74.817
0.076,-0.813,0.803,180.520,132.433,72.813
0.065,-0.789,0.789,185.884,131.720,70.182
0.056,-0.763,0.775,189.126,130.210,66.597
0.047,-0.738,0.761,190.974,128.633,62.752
0.037,-0.716,0.747,192.066,127.034,58.937
0.027,-0.694,0.734,191.270,125.401,55.286
0.016,-0.671,0.721,190.868,123.775,52.107
0.004,-0.647,0.708,189.631,122.134,49.280
-0.008,-0.624,0.697,187.610,120.431,46.650
-0.019,-0.601,0.686,184.894,118.545,44.253
-0.031,-0.578,0.675,181.555,116.582,42.210
-0.042,-0.557,0.666,177.799,114.647,40.500
-0.051,-0.536,0.658,173.764,112.762,39.002
-0.061,-0.518,0.650,169.667,110.846,37.580
-0.070,-0.499,0.642,165.579,108.824,36.253
-0.080,-0.482,0.635,161.558,106.435,35.023
-0.090,-0.465,0.627,157.657,104.285,33.849
-0.100,-0.450,0.620,153.894,102.080,32.618
-0.110,-0.435,0.613,150.276,99.850,31.172
-0.121,-0.420,0.607,146.794,97.629,29.569
-0.131,-0.406,0.602,143.427,95.444,27.795
-0.141,-0.392,0.598,140.164,93.155,25.975
-0.151,-0.378,0.595,136.999,90.993,24.214
-0.161,-0.364,0.592,133.926,88.979,22.620
-0.172,-0.351,0.589,130.947,86.989,21.301
-0.183,-0.337,0.587,128.076,84.942,20.147
-0.194,-0.323,0.584,124.933,82.810,19.094
-0.205,-0.308,0.581,121.120,80.396,18.149
-0.216,-0.294,0.576,116.728,77.946,17.245
-0.227,-0.281,0.572,111.993,75.531,16.367
-0.237,-0.270,0.568,107.074,73.193,15.588
-0.248,-0.259,0.565,102.265,70.947,14.919
-0.259,-0.249,0.563,97.697,68.874,14.371
-0.271,-0.239,0.563,93.624,67.011,13.892
-0.282,-0.231,0.564,90.206,65.245,13.468
-0.293,-0.222,0.566,87.374,63.534,13.090
-0.304,-0.213,0.568,85.070,61.930,12.811
-0.315,-0.204,0.569,83.044,60.455,12.611
-0.325,-0.195,0.572,81.173,59.040,12.444
-0.336,-0.185,0.573,79.292,57.615,12.303
-0.347,-0.175,0.574,77.323,56.162,12.206
-0.357,-0.166,0.574,75.294,54.719,12.143
-0.367,-0.157,0.574,73.203,53.297,12.098
-0.378,-0.149,0.574,71.118,51.882,12.039
-0.388,-0.141,0.574,69.125,50.455,11.939
-0.398,-0.134,0.577,67.244,48.929,11.759
-0.408,-0.127,0.580,65.456,47.329,11.500
-0.418,-0.119,0.584,63.711,45.656,11.165
-0.427,-0.113,0.589,62.018,43.993,10.807
-0.436,-0.106,0.593,60.420,42.392,10.435
-0.445,-0.101,0.598,58.939,40.874,10.070
-0.453,-0.095,0.602,57.562,39.410,9.707
-0.462,-0.089,0.605,56.233,37.963,9.345
-0.471,-0.084,0.607,54.938,36.508,8.983
-0.479,-0.078,0.609,53.597,35.048,8.616
-0.487,-0.073,0.610,52.125,33.589,8.246
-0.495,-0.067,0.612,50.640,32.156,7.882
-0.503,-0.062,0.614,49.267,30.760,7.525
-0.510,-0.058,0.617,48.043,29.438,7.182
-0.516,-0.053,0.620,46.930,28.196,6.853
-0.522,-0.048,0.624,45.879,27.021,6.549
-0.528,-0.044,0.627,44.837,25.934,6.280
-0.534,-0.040,0.630,43.824,24.931,6.044
-0.539,-0.036,0.633,42.867,24.016,5.841
-0.545,-0.033,0.636,41.962,23.208,5.658
-0.550,-0.029,0.639,41.103,22.471,5.501
-0.556,-0.025,0.641,40.226,21.759,5.364
-0.561,-0.022,0.643,39.321,21.048,5.232
-0.566,-0.017,0.645,38.374,20.368,5.106
-0.571,-0.013,0.647,37.406,19.762,5.005
-0.576,-0.010,0.649,36.416,19.231,4.932
-0.581,-0.006,0.651,35.436,18.747,4.847
-0.585,-0.003,0.653,34.450,18.265,4.728
-0.590,0.001,0.655,33.431,17.766,4.555
-0.594,0.004,0.657,32.371,17.248,4.350
-0.597,0.007,0.658,31.260,16.718,4.128
-0.601,0.010,0.660,30.142,16.185,3.908
-0.605,0.013,0.662,29.025,15.654,3.698
-0.608,0.016,0.663,27.902,15.120,3.498
-0.611,0.019,0.665,26.771,14.560,3.288
-0.614,0.021,0.666,25.641,14.024,3.091
-0.617,0.023,0.667,24.553,13.524,2.899
-0.620,0.026,0.668,23.455,13.061,2.721
-0.622,0.028,0.669,22.324,12.677,2.567
-0.625,0.030,0.670,21.257,12.344,2.433
-0.627,0.031,0.670,20.295,12.041,2.295
-0.630,0.033,0.671,19.398,11.741,2.159
-0.632,0.034,0.671,18.531,11.442,2.043
-0.635,0.036,0.672,17.704,11.151,1.961
-0.637,0.037,0.672,16.967,10.857,1.905
-0.639,0.038,0.672,16.322,10.547,1.873
-0.641,0.039,0.673,15.764,10.218,1.860
-0.643,0.039,0.674,15.272,9.875,1.875
-0.645,0.041,0.675,14.808,9.513,1.893
-0.647,0.042,0.676,14.341,9.132,1.909
-0.650,0.043,0.676,13.856,8.748,1.928
-0.652,0.045,0.675,13.356,8.375,1.943
-0.654,0.046,0.675,12.854,8.009,1.951
-0.656,0.048,0.675,12.373,7.647,1.947
-0.659,0.049,0.675,11.928,7.287,1.938
-0.661,0.051,0.675,11.502,6.923,1.927
-0.663,0.052,0.676,11.119,6.558,1.920
-0.665,0.053,0.677,10.778,6.200,1.917
-0.667,0.055,0.678,10.466,5.841,1.912
-0.669,0.056,0.679,10.174,5.476,1.896
-0.671,0.058,0.681,9.860,5.120,1.871
-0.673,0.060,0.682,9.499,4.784,1.842
-0.674,0.061,0.683,9.099,4.473,1.811
-0.676,0.063,0.684,8.652,4.186,1.776
-0.678,0.065,0.685,8.190,3.915,1.746
-0.679,0.066,0.685,7.755,3.661,1.715
-0.681,0.067,0.685,7.376,3.421,1.678
-0.683,0.068,0.685,7.053,3.196,1.639
-0.685,0.069,0.686,6.801,2.980,1.604
-0.686,0.070,0.687,6.601,2.772,1.562
-0.688,0.070,0.688,6.431,2.575,1.519
-0.689,0.071,0.689,6.288,2.396,1.471
-0.690,0.072,0.691,6.152,2.233,1.420
-0.691,0.073,0.692,5.997,2.085,1.360
-0.692,0.074,0.694,5.797,1.951,1.284
-0.692,0.076,0.695,5.533,1.830,1.206
-0.693,0.077,0.696,5.245,1.716,1.128
-0.695,0.078,0.696,4.943,1.606,1.049
-0.696,0.079,0.696,4.620,1.490,0.970
-0.697,0.080,0.696,4.300,1.369,0.897
-0.698,0.080,0.696,4.016,1.232,0.818
-0.699,0.080,0.696,3.813,1.084,0.738
-0.700,0.080,0.697,3.682,0.936,0.661
-0.700,0.080,0.698,3.621,0.802,0.588
-0.700,0.080,0.699,3.587,0.691,0.520
-0.701,0.080,0.701,3.557,0.602,0.455
-0.701,0.080,0.702,3.522,0.537,0.398
-0.701,0.081,0.703,3.481,0.497,0.344
-0.701,0.081,0.703,3.415,0.477,0.295
-0.701,0.082,0.703,3.327,0.457,0.251
-0.702,0.083,0.703,3.200,0.426,0.212
-0.702,0.083,0.703,3.034,0.385,0.174
-0.702,0.084,0.703,2.865,0.328,0.139
-0.702,0.084,0.703,2.711,0.259,0.116
-0.701,0.084,0.704,2.582,0.192,0.100
-0.701,0.083,0.704,2.466,0.127,0.093
-0.701,0.083,0.704,2.354,0.068,0.087
-0.700,0.083,0.704,2.228,0.025,0.086

-0.545,-0.244,1.066,-5.914,-21.529,-17.574
-0.537,-0.247,1.071,-13.803,-36.856,-29.404
-0.528,-0.257,1.075,-19.691,-46.199,-36.509
-0.516,-0.271,1.080,-22.828,-51.462,-41.530
-0.504,-0.286,1.092,-23.743,-55.301,-45.546
-0.493,-0.297,1.110,-23.529,-59.891,-49.292
-0.482,-0.309,1.134,-22.941,-65.024,-53.385
-0.466,-0.321,1.161,-22.301,-70.191,-57.572
-0.450,-0.335,1.192,-21.697,-74.976,-61.487
-0.432,-0.350,1.222,-21.043,-79.182,-64.685
-0.416,-0.365,1.249,-20.326,-82.681,-66.633
-0.400,-0.376,1.274,-19.603,-85.421,-67.638
-0.384,-0.388,1.298,-18.879,-87.109,-67.942
-0.365,-0.402,1.321,-18.061,-87.779,-67.661
-0.344,-0.419,1.343,-16.859,-87.552,-67.034
-0.323,-0.438,1.366,-15.354,-86.195,-66.174
-0.299,-0.456,1.391,-13.860,-84.150,-65.128
-0.276,-0.475,1.417,-12.542,-81.847,-63.803
-0.254,-0.494,1.443,-11.385,-79.502,-62.348
-0.233,-0.512,1.468,-10.414,-75.746,-60.415
-0.214,-0.528,1.490,-9.695,-70.917,-57.989
-0.197,-0.543,1.511,-9.250,-65.403,-54.997
-0.183,-0.553,1.528,-9.190,-59.924,-51.635
-0.169,-0.561,1.542,-9.841,-53.478,-47.266
-0.159,-0.567,1.555,-10.691,-48.910,-44.171
-0.152,-0.570,1.563,-12.251,-43.993,-39.785
-0.141,-0.578,1.565,-14.081,-36.632,-34.482
-0.129,-0.593,1.563,-14.587,-28.371,-29.107
-0.121,-0.608,1.560,-14.014,-20.827,-24.026
-0.114,-0.616,1.556,-12.551,-13.223,-19.018
-0.105,-0.624,1.550,-10.630,-5.006,-13.880
-0.097,-0.630,1.543,-8.233,4.013,-8.740
-0.091,-0.634,1.536,-5.404,13.216,-3.540
-0.085,-0.637,1.527,-2.003,22.484,1.715
-0.079,-0.637,1.516,1.750,31.778,6.837
-0.074,-0.637,1.505,5.692,40.823,11.745
-0.071,-0.635,1.493,9.709,49.181,16.325
-0.069,-0.632,1.479,13.542,56.616,20.488
-0.067,-0.627,1.463,17.043,63.267,24.115
-0.065,-0.622,1.446,20.180,69.289,27.147
-0.063,-0.618,1.426,23.088,74.949,29.467
-0.060,-0.613,1.404,26.005,80.425,31.357
-0.058,-0.609,1.381,29.048,85.749,32.848
-0.057,-0.605,1.358,32.278,91.057,33.914
-0.056,-0.600,1.334,35.766,96.033,34.619
-0.056,-0.595,1.312,39.435,100.544,35.025
-0.057,-0.590,1.289,43.150,104.651,35.235
-0.058,-0.584,1.268,46.877,108.250,35.264
-0.060,-0.577,1.247,50.384,111.201,35.157
-0.062,-0.569,1.228,53.575,113.479,34.917
-0.065,-0.559,1.209,56.343,115.037,34.581
-0.069,-0.549,1.191,58.486,116.191,34.221
-0.072,-0.539,1.173,59.971,117.010,33.865
-0.077,-0.528,1.153,60.898,117.453,33.514
-0.087,-0.509,1.138,61.864,114.757,31.177
-0.088,-0.491,1.116,61.510,111.196,27.775
-0.087,-0.481,1.099,58.420,109.082,24.379
-0.095,-0.460,1.082,54.757,106.625,22.478
-0.098,-0.457,1.056,50.045,109.196,23.909
-0.099,-0.465,1.037,49.048,111.571,24.410
-0.107,-0.463,1.025,49.376,110.519,23.555
-0.115,-0.453,1.015,49.305,108.197,22.290
-0.118,-0.446,1.001,48.789,105.912,21.039
-0.116,-0.442,0.985,48.231,104.083,20.166
-0.118,-0.440,0.969,47.950,102.764,19.643
-0.123,-0.441,0.953,48.252,101.840,19.372
-0.128,-0.439,0.937,49.166,101.360,19.412
-0.132,-0.436,0.921,50.853,101.149,19.691
-0.138,-0.431,0.907,52.868,100.653,20.011
-0.144,-0.423,0.894,54.767,99.710,20.255
-0.151,-0.414,0.882,56.248,98.397,20.535
-0.158,-0.404,0.871,57.205,97.098,21.132
-0.166,-0.396,0.861,57.968,95.708,21.857
-0.174,-0.388,0.851,58.606,94.103,22.382
-0.182,-0.378,0.842,58.812,92.266,22.245
-0.189,-0.365,0.834,58.369,90.288,21.711
-0.196,-0.351,0.827,57.373,88.328,21.124
-0.203,-0.340,0.818,55.480,86.427,20.660
-0.211,-0.331,0.808,53.133,84.584,20.319
-0.218,-0.325,0.799,50.791,82.785,19.985
-0.226,-0.319,0.789,48.695,81.020,19.573
-0.233,-0.314,0.780,47.010,79.160,19.133
-0.241,-0.308,0.773,45.633,77.124,18.672
-0.248,-0.303,0.766,44.495,74.876,18.171
-0.256,-0.298,0.761,43.568,72.312,17.611
-0.263,-0.292,0.759,42.750,69.655,17.021
-0.269,-0.285,0.758,41.926,66.961,16.411
-0.277,-0.278,0.757,41.021,64.312,15.858
-0.284,-0.271,0.755,40.010,61.685,15.344
-0.291,-0.264,0.753,38.895,59.170,14.875
-0.298,-0.257,0.750,37.759,56.776,14.460
-0.305,-0.251,0.746,36.601,54.731,14.095
-0.313,-0.245,0.742,35.414,52.919,13.825
-0.322,-0.239,0.738,34.223,51.332,13.646
-0.330,-0.233,0.734,33.064,49.986,13.526
-0.338,-0.227,0.732,31.945,48.812,13.459
-0.346,-0.222,0.731,30.955,47.749,13.437
-0.354,-0.218,0.732,30.135,46.773,13.443
-0.362,-0.214,0.734,29.472,45.775,13.422
-0.370,-0.210,0.737,28.878,44.755,13.349
-0.377,-0.206,0.739,28.350,43.733,13.222
-0.384,-0.201,0.741,27.802,42.690,13.035
-0.392,-0.196,0.742,27.190,41.617,12.841
-0.399,-0.191,0.743,26.489,40.545,12.631
-0.406,-0.186,0.742,25.709,39.389,12.363
-0.413,-0.181,0.741,24.876,38.167,12.028
-0.421,-0.175,0.740,23.996,36.874,11.648
-0.428,-0.171,0.740,23.123,35.572,11.254
-0.434,-0.167,0.740,22.369,34.268,10.843
-0.441,-0.164,0.741,21.732,32.953,10.396
-0.447,-0.160,0.744,21.135,31.651,9.939
-0.453,-0.157,0.747,20.510,30.407,9.510
-0.459,-0.154,0.749,19.858,29.251,9.117
-0.465,-0.151,0.752,19.249,28.196,8.753
-0.470,-0.149,0.754,18.672,27.226,8.409
-0.476,-0.146,0.756,18.065,26.324,8.083
-0.481,-0.143,0.757,17.410,25.488,7.767
-0.486,-0.140,0.757,16.712,24.718,7.460
-0.490,-0.137,0.757,16.031,24.004,7.171
-0.495,-0.135,0.757,15.412,23.324,6.895
-0.500,-0.133,0.757,14.874,22.661,6.633
-0.505,-0.130,0.758,14.381,22.005,6.373
-0.509,-0.128,0.759,13.941,21.338,6.106
-0.513,-0.127,0.761,13.512,20.652,5.823
-0.517,-0.125,0.764,13.057,19.959,5.507
-0.520,-0.123,0.766,12.591,19.286,5.184
-0.524,-0.122,0.767,12.140,18.657,4.857
-0.527,-0.121,0.768,11.721,18.100,4.534
-0.531,-0.120,0.768,11.328,17.591,4.208
-0.534,-0.119,0.768,10.963,17.109,3.875
-0.538,-0.117,0.768,10.613,16.643,3.557
-0.541,-0.116,0.769,10.276,16.189,3.266
-0.544,-0.115,0.770,9.945,15.707,3.012
-0.548,-0.115,0.770,9.651,15.242,2.783
-0.551,-0.114,0.771,9.419,14.791,2.575
-0.554,-0.114,0.772,9.233,14.353,2.385
-0.557,-0.113,0.773,9.116,13.940,2.217
-0.560,-0.113,0.775,9.011,13.546,2.065
-0.563,-0.112,0.777,8.889,13.178,1.930
-0.566,-0.111,0.777,8.752,12.848,1.812
-0.568,-0.110,0.777,8.595,12.541,1.707
-0.570,-0.110,0.778,8.418,12.247,1.610
-0.573,-0.109,0.778,8.206,11.964,1.528
-0.576,-0.108,0.778,7.979,11.667,1.452
-0.579,-0.107,0.778,7.741,11.349,1.385
-0.581,-0.107,0.779,7.501,11.022,1.321
-0.584,-0.107,0.780,7.264,10.675,1.265
-0.587,-0.107,0.781,7.035,10.329,1.211
-0.589,-0.106,0.781,6.805,9.998,1.167
-0.591,-0.106,0.782,6.566,9.688,1.130
-0.593,-0.106,0.782,6.345,9.399,1.095
-0.595,-0.105,0.782,6.123,9.132,1.068
-0.596,-0.105,0.782,5.905,8.881,1.052
-0.598,-0.104,0.782,5.688,8.643,1.042
-0.600,-0.103,0.781,5.482,8.416,1.048
-0.601,-0.103,0.781,5.287,8.195,1.060
-0.602,-0.103,0.780,5.105,7.985,1.081
-0.603,-0.102,0.780,4.959,7.797,1.105
-0.604,-0.102,0.779,4.830,7.627,1.127
-0.606,-0.102,0.779,4.704,7.469,1.158
-0.607,-0.101,0.779,4.581,7.314,1.184
-0.608,-0.100,0.779,4.450,7.154,1.209
-0.610,-0.099,0.779,4.315,6.990,1.222
-0.611,-0.099,0.779,4.168,6.815,1.235
-0.612,-0.098,0.779,3.989,6.635,1.239
-0.614,-0.097,0.778,3.788,6.454,1.240
-0.615,-0.097,0.778,3.579,6.271,1.238
-0.616,-0.096,0.777,3.372,5.428,1.245
-0.617,-0.095,0.776,3.181,5.258,1.261
-0.618,-0.095,0.776,3.010,5.087,1.278
-0.619,-0.094,0.776,2.851,4.920,1.299
-0.620,-0.094,0.775,2.723,4.780,1.323
-0.621,-0.094,0.775,2.630,4.660,1.346
-0.621,-0.094,0.775,2.571,4.555,1.367
-0.622,-0.093,0.776,2.525,4.456,1.386
-0.623,-0.093,0.776,2.486,4.365,1.396
-0.623,-0.092,0.776,2.438,4.284,1.403
-0.624,-0.091,0.776,2.356,4.188,1.415
-0.625,-0.091,0.775,2.244,4.081,1.422
-0.626,-0.090,0.775,2.139,3.970,1.437
-0.627,-0.089,0.774,2.049,3.847,1.450
-0.627,-0.089,0.774,1.961,3.717,1.466
-0.628,-0.088,0.774,1.876,3.572,1.481
-0.629,-0.087,0.774,1.794,3.424,1.500
-0.630,-0.087,0.775,1.730,3.281,1.509
-0.630,-0.086,0.776,1.679,3.151,1.510
-0.630,-0.086,0.777,1.615,3.046,1.499
-0.631,-0.085,0.778,1.534,2.967,1.483
-0.631,-0.085,0.779,1.438,2.914,1.468
-0.631,-0.084,0.779,1.341,2.887,1.450
-0.632,-0.084,0.779,1.244,2.884,1.428
-0.632,-0.083,0.778,1.170,2.896,1.408
-0.633,-0.083,0.777,1.113,2.911,1.395
-0.633,-0.082,0.777,1.078,2.919,1.389
-0.634,-0.082,0.776,1.048,2.922,1.399
-0.634,-0.081,0.776,1.024,2.913,1.417
-0.635,-0.081,0.776,1.001,2.879,1.433
-0.635,-0.080,0.777,0.949,2.835,1.452
-0.634,-0.080,0.777,0.882,2.793,1.472

0.049,-0.331,1.543,-1.673,-10.655,-3.286
0.062,-0.349,1.579,-4.301,-19.326,-7.039
0.076,-0.367,1.614,-6.857,-23.954,-9.927
0.090,-0.388,1.648,-9.109,-25.274,-12.095
0.104,-0.409,1.680,-10.781,-25.266,-13.699
0.117,-0.431,1.710,-11.890,-24.551,-14.640
0.128,-0.451,1.736,-12.564,-23.284,-15.182
0.139,-0.469,1.760,-13.068,-21.151,-15.391
0.149,-0.486,1.779,-13.460,-17.706,-15.332
0.158,-0.501,1.797,-13.738,-13.401,-15.073
0.165,-0.516,1.812,-13.764,-8.215,-14.479
0.172,-0.529,1.825,-13.561,-2.290,-13.596
0.178,-0.542,1.834,-13.157,4.347,-12.413
0.182,-0.553,1.839,-12.583,11.945,-10.967
0.186,-0.563,1.841,-11.895,20.061,-9.278
0.188,-0.571,1.839,-10.399,28.570,-7.254
0.190,-0.578,1.835,-9.441,37.111,-5.104
0.190,-0.585,1.829,-8.223,45.570,-3.144
0.188,-0.591,1.819,-6.837,53.438,-1.324
0.189,-0.597,1.806,-5.123,62.403,0.781
0.189,-0.604,1.791,-2.998,70.792,2.786
0.187,-0.611,1.775,1.164,78.817,5.031
0.186,-0.618,1.756,5.139,88.418,7.539
0.186,-0.624,1.735,10.026,98.240,9.718
0.184,-0.627,1.714,15.186,107.675,11.734
0.181,-0.629,1.692,20.412,115.797,13.853
0.176,-0.633,1.668,26.142,122.530,16.121
0.172,-0.637,1.644,32.875,128.346,18.213
0.168,-0.639,1.620,40.315,133.264,19.939
0.165,-0.640,1.596,47.641,137.645,21.349
0.161,-0.637,1.571,54.149,141.730,22.540
0.157,-0.633,1.546,59.740,145.490,23.569
0.151,-0.627,1.521,64.315,148.869,24.518
0.144,-0.620,1.496,68.010,151.789,25.362
0.137,-0.611,1.471,70.880,154.080,25.968
0.129,-0.600,1.441,72.962,155.793,26.354
0.120,-0.589,1.414,74.383,156.895,26.550
0.111,-0.577,1.386,75.208,157.583,26.564
0.100,-0.564,1.356,75.559,157.921,26.433
0.089,-0.551,1.327,75.591,157.907,26.195
0.078,-0.539,1.296,75.410,157.555,25.852
0.066,-0.527,1.265,75.320,156.934,25.453
0.055,-0.515,1.235,75.529,156.030,25.009
0.043,-0.505,1.204,76.190,154.892,24.526
0.032,-0.494,1.175,77.379,153.386,23.976
0.021,-0.483,1.148,78.895,151.656,23.379
0.010,-0.472,1.123,80.714,149.667,22.716
0.001,-0.461,1.101,82.690,147.483,21.941
-0.008,-0.449,1.079,84.690,145.165,20.978
-0.015,-0.437,1.059,86.428,142.788,19.964
-0.023,-0.425,1.039,87.742,140.399,18.976
-0.030,-0.413,1.019,88.614,138.031,18.060
-0.037,-0.401,0.997,89.093,135.633,17.241
-0.046,-0.389,0.975,89.296,133.202,16.479
-0.055,-0.378,0.954,89.297,130.709,15.714
-0.065,-0.366,0.933,89.110,128.142,14.941
-0.075,-0.354,0.913,88.785,125.515,14.156
-0.084,-0.342,0.895,88.341,122.866,13.354
-0.094,-0.329,0.879,87.701,120.226,12.566
-0.102,-0.316,0.865,86.828,117.611,11.812
-0.110,-0.304,0.853,85.732,115.059,11.132
-0.118,-0.292,0.840,84.447,112.575,10.546
-0.126,-0.280,0.828,83.017,110.164,10.160
-0.135,-0.270,0.815,81.459,107.816,9.861
-0.144,-0.259,0.800,79.831,105.524,9.553
-0.154,-0.248,0.786,77.797,103.293,9.202
-0.163,-0.238,0.771,75.380,100.777,8.906
-0.173,-0.229,0.756,72.822,98.245,8.684
-0.182,-0.222,0.744,70.437,95.635,8.454
-0.192,-0.214,0.733,68.437,92.867,8.096
-0.201,-0.206,0.725,66.666,89.927,7.609
-0.210,-0.198,0.718,65.045,86.813,7.045
-0.219,-0.190,0.713,63.452,83.614,6.445
-0.227,-0.182,0.708,61.811,80.411,5.841
-0.235,-0.174,0.703,60.050,77.115,5.226
-0.244,-0.166,0.697,58.083,73.758,4.572
-0.254,-0.158,0.691,55.681,70.357,3.909
-0.264,-0.150,0.684,53.042,67.045,3.222
-0.273,-0.142,0.678,50.272,63.777,2.525
-0.283,-0.135,0.673,47.500,60.436,1.794
-0.292,-0.128,0.669,44.788,57.169,1.058
-0.302,-0.121,0.666,42.203,53.989,0.372
-0.311,-0.115,0.664,39.798,50.858,-0.266
-0.321,-0.110,0.664,37.477,47.903,-0.806
-0.329,-0.105,0.663,35.238,45.131,-1.240
-0.338,-0.100,0.664,33.034,42.512,-1.568
-0.348,-0.095,0.665,30.841,40.107,-1.772
-0.358,-0.090,0.667,28.668,37.856,-1.893
-0.368,-0.086,0.669,26.475,35.685,-1.917
-0.378,-0.083,0.671,24.342,33.614,-1.867
-0.388,-0.080,0.671,22.329,31.633,-1.790
-0.396,-0.077,0.672,20.516,29.761,-1.678
-0.405,-0.075,0.673,18.969,27.992,-1.550
-0.414,-0.073,0.675,17.729,26.316,-1.436
-0.422,-0.072,0.678,16.832,24.737,-1.352
-0.430,-0.071,0.681,16.170,23.280,-1.277
-0.437,-0.070,0.686,15.724,21.980,-1.212
-0.444,-0.070,0.690,15.463,20.778,-1.161
-0.451,-0.069,0.695,15.326,19.652,-1.124
-0.458,-0.068,0.699,15.275,18.578,-1.113
-0.465,-0.067,0.704,15.237,17.507,-1.135
-0.472,-0.065,0.708,15.170,16.408,-1.183
-0.479,-0.063,0.713,15.050,15.257,-1.251
-0.486,-0.061,0.718,14.799,14.106,-1.309
-0.493,-0.059,0.723,14.434,12.952,-1.398
-0.499,-0.056,0.728,13.922,11.879,-1.475
-0.505,-0.054,0.733,13.259,10.865,-1.529
-0.511,-0.052,0.737,12.534,9.892,-1.588
-0.517,-0.050,0.740,11.774,9.005,-1.635
-0.523,-0.048,0.744,11.021,8.261,-1.664
-0.529,-0.046,0.748,10.319,7.642,-1.669
-0.534,-0.045,0.751,9.708,7.133,-1.664
-0.539,-0.044,0.754,9.201,6.738,-1.639
-0.544,-0.043,0.758,8.803,6.428,-1.614
-0.549,-0.042,0.762,8.510,6.199,-1.597
-0.553,-0.042,0.765,8.295,6.042,-1.581
-0.557,-0.042,0.769,8.192,5.929,-1.574
-0.562,-0.041,0.773,8.166,5.831,-1.608
-0.566,-0.040,0.776,8.151,5.765,-1.644
-0.569,-0.039,0.778,8.117,5.733,-1.688
-0.573,-0.037,0.780,8.030,5.729,-1.738
-0.576,-0.036,0.782,7.865,5.722,-1.790
-0.580,-0.034,0.783,7.613,5.694,-1.846
-0.583,-0.032,0.783,7.279,5.641,-1.906
-0.586,-0.031,0.783,6.939,5.568,-1.967
-0.589,-0.030,0.783,6.630,5.457,-2.028
-0.592,-0.030,0.783,6.372,5.315,-2.086
-0.595,-0.030,0.783,6.180,5.146,-2.132
-0.597,-0.030,0.784,6.062,4.963,-2.167
-0.599,-0.030,0.784,5.994,4.775,-2.189
-0.600,-0.030,0.785,5.959,4.579,-2.198
-0.602,-0.029,0.786,5.924,4.392,-2.192
-0.603,-0.029,0.785,5.868,4.233,-2.171
-0.605,-0.028,0.784,5.771,4.076,-2.137
-0.606,-0.027,0.783,5.659,3.938,-2.094
-0.607,-0.027,0.782,5.540,3.823,-2.038
-0.608,-0.026,0.781,5.415,3.730,-1.968
-0.609,-0.025,0.779,5.296,3.649,-1.898
-0.610,-0.025,0.779,5.204,3.579,-1.830
-0.611,-0.024,0.778,5.124,3.518,-1.756
-0.612,-0.024,0.779,5.058,3.459,-1.677
-0.613,-0.024,0.779,4.966,3.412,-1.575
-0.614,-0.023,0.779,4.832,3.366,-1.469
-0.614,-0.022,0.779,4.643,3.320,-1.375
-0.616,-0.021,0.778,4.384,3.264,-1.288
-0.617,-0.020,0.777,4.042,3.195,-1.212
-0.618,-0.018,0.776,3.543,3.096,-1.145
-0.619,-0.017,0.775,2.949,2.973,-1.091
-0.619,-0.015,0.774,2.316,2.835,-1.051
-0.620,-0.015,0.772,1.692,2.695,-1.015
-0.621,-0.014,0.771,1.107,2.569,-0.975
-0.622,-0.014,0.770,0.587,2.460,-0.941
-0.623,-0.014,0.770,0.144,2.376,-0.907
-0.624,-0.014,0.769,-0.191,2.314,-0.873
-0.625,-0.013,0.768,-0.479,2.268,-0.829
-0.626,-0.013,0.768,-0.740,2.231,-0.793
-0.627,-0.013,0.768,-0.982,2.187,-0.757
-0.628,-0.013,0.767,-1.208,2.136,-0.716
-0.629,-0.012,0.767,-1.459,2.071,-0.672
-0.631,-0.011,0.766,-1.727,1.988,-0.622
-0.632,-0.011,0.764,-1.980,1.906,-0.569
-0.633,-0.011,0.763,-2.215,1.817,-0.514
-0.634,-0.010,0.762,-2.410,1.709,-0.456
-0.635,-0.011,0.762,-2.559,1.579,-0.396
-0.636,-0.011,0.762,-2.680,1.436,-0.342
-0.638,-0.011,0.762,-2.775,1.289,-0.291
-0.639,-0.011,0.762,-2.860,1.134,-0.231
-0.640,-0.012,0.763,-2.926,0.986,-0.183
-0.641,-0.012,0.763,-2.962,0.836,-0.140
-0.642,-0.013,0.763,-2.988,0.686,-0.095
-0.643,-0.013,0.764,-3.011,0.533,-0.047
-0.644,-0.013,0.764,-3.027,0.384,0.004
-0.645,-0.014,0.764,-3.020,0.239,0.053
-0.645,-0.014,0.764,-2.965,0.103,0.121
-0.646,-0.014,0.764,-2.874,-0.019,0.203
-0.646,-0.015,0.764,-2.738,-0.124,0.290
-0.646,-0.015,0.764,-2.549,-0.212,0.379
-0.647,-0.016,0.764,-2.310,-0.286,0.482
-0.647,-0.016,0.765,-2.029,-0.338,0.583
-0.648,-0.017,0.766,-1.740,-0.373,0.684
-0.648,-0.017,0.767,-1.444,-0.381,0.781
-0.648,-0.017,0.767,-1.146,-0.373,0.874
-0.648,-0.017,0.767,-0.854,-0.364,0.977
-0.649,-0.017,0.767,-0.576,-0.364,1.083
-0.649,-0.016,0.767,-0.311,-0.378,1.197
-0.649,-0.016,0.767,-0.056,-0.407,1.319
-0.649,-0.016,0.767,0.198,-0.455,1.457
-0.650,-0.015,0.767,0.443,-0.522,1.604
-0.650,-0.015,0.767,0.680,-0.599,1.753
-0.650,-0.015,0.768,0.899,-0.674,1.906
-0.650,-0.015,0.768,1.088,-0.738,2.053
-0.650,-0.014,0.769,1.259,-0.787,2.197
-0.649,-0.014,0.769,1.395,-0.821,2.341
-0.649,-0.013,0.769,1.501,-0.852,2.494
-0.649,-0.012,0.769,1.591,-0.888,2.656
-0.649,-0.012,0.769,1.651,-0.943,2.828
-0.649,-0.011,0.768,1.688,-1.025,3.010
-0.649,-0.010,0.768,1.694,-1.134,3.202
-0.649,-0.010,0.767,1.678,-1.254,3.404

-0.017,-0.491,1.372,-5.334,-18.623,-2.239
-0.003,-0.505,1.398,-10.267,-32.008,-6.929
0.010,-0.521,1.426,-13.799,-42.923,-10.937
0.029,-0.539,1.459,-16.172,-51.215,-14.493
0.047,-0.559,1.493,-17.662,-57.192,-17.560
0.068,-0.581,1.530,-18.644,-60.803,-19.794
0.090,-0.605,1.565,-19.142,-62.222,-21.424
0.114,-0.631,1.598,-19.248,-61.807,-22.533
0.138,-0.658,1.630,-18.950,-59.993,-23.169
0.161,-0.686,1.657,-18.281,-56.840,-23.367
0.182,-0.712,1.681,-16.999,-51.178,-23.119
0.200,-0.735,1.700,-14.870,-43.023,-22.666
0.215,-0.756,1.716,-11.819,-32.707,-21.992
0.225,-0.772,1.726,-7.895,-20.131,-21.067
0.233,-0.786,1.733,-3.157,-6.717,-19.953
0.239,-0.793,1.737,2.501,7.101,-18.699
0.243,-0.801,1.738,8.415,20.960,-17.347
0.245,-0.808,1.736,14.445,34.544,-16.410
0.244,-0.811,1.729,19.430,46.542,-15.664
0.247,-0.813,1.716,24.064,60.850,-14.283
0.251,-0.817,1.699,29.104,73.942,-12.809
0.249,-0.820,1.681,34.946,86.093,-10.932
0.249,-0.821,1.660,41.026,100.551,-8.365
0.249,-0.821,1.638,47.740,113.975,-6.095
0.245,-0.818,1.614,54.412,125.276,-4.189
0.241,-0.812,1.588,60.503,134.680,-2.290
0.235,-0.807,1.560,66.399,141.872,-0.238
0.229,-0.802,1.530,72.718,147.449,1.626
0.223,-0.795,1.500,79.573,151.855,3.029
0.218,-0.785,1.472,85.899,154.984,4.056
0.212,-0.771,1.445,90.985,157.170,4.876
0.206,-0.757,1.420,94.744,158.962,5.605
0.201,-0.744,1.395,97.678,160.250,6.133
0.194,-0.732,1.371,100.040,160.609,6.392
0.188,-0.718,1.349,101.966,160.607,6.472
0.182,-0.705,1.328,103.453,160.538,6.479
0.176,-0.692,1.306,104.508,160.560,6.484
0.170,-0.679,1.283,105.134,160.519,6.409
0.163,-0.665,1.260,105.274,160.125,6.208
0.155,-0.649,1.234,104.829,159.324,5.882
0.146,-0.632,1.207,103.921,158.200,5.483
0.137,-0.615,1.178,102.860,156.653,5.032
0.127,-0.600,1.151,101.866,154.883,4.555
0.116,-0.585,1.124,101.072,152.928,4.089
0.104,-0.570,1.100,100.556,150.791,3.626
0.093,-0.556,1.077,100.299,148.557,3.177
0.082,-0.541,1.057,100.410,146.333,2.802
0.071,-0.527,1.038,100.758,144.159,2.468
0.061,-0.513,1.021,101.268,141.972,2.119
0.050,-0.499,1.005,101.774,139.712,1.767
0.040,-0.484,0.990,102.137,136.906,1.429
0.030,-0.470,0.975,102.230,134.421,1.073
0.020,-0.456,0.960,101.896,131.896,0.719
0.010,-0.442,0.943,101.153,129.402,0.404
0.000,-0.428,0.925,100.108,126.899,0.101
-0.010,-0.413,0.909,98.753,124.369,-0.248
-0.021,-0.399,0.893,97.298,121.847,-0.608
-0.033,-0.385,0.879,95.825,119.352,-0.959
-0.044,-0.372,0.866,94.371,116.882,-1.292
-0.056,-0.359,0.854,92.952,114.463,-1.588
-0.067,-0.346,0.843,91.579,112.095,-1.876
-0.078,-0.333,0.835,90.226,109.781,-2.128
-0.088,-0.321,0.828,88.892,107.522,-2.316
-0.098,-0.309,0.822,87.621,105.319,-2.439
-0.109,-0.298,0.816,86.397,103.165,-2.501
-0.120,-0.288,0.809,85.135,101.065,-2.523
-0.130,-0.277,0.801,83.801,99.013,-2.530
-0.141,-0.265,0.793,82.335,97.011,-2.605
-0.152,-0.254,0.786,80.820,94.951,-2.774
-0.162,-0.242,0.780,79.254,92.788,-3.026
-0.172,-0.230,0.774,77.432,90.394,-3.372
-0.182,-0.219,0.769,75.330,87.804,-3.806
-0.192,-0.208,0.764,72.881,85.023,-4.325
-0.201,-0.197,0.760,69.902,82.032,-4.958
-0.211,-0.187,0.755,66.539,79.074,-5.795
-0.220,-0.177,0.751,62.853,76.207,-6.765
-0.230,-0.168,0.747,58.971,73.241,-7.806
-0.239,-0.159,0.743,55.086,70.108,-8.881
-0.248,-0.152,0.740,51.260,66.861,-9.965
-0.257,-0.145,0.739,47.536,63.512,-11.073
-0.265,-0.138,0.737,43.910,60.171,-12.101
-0.274,-0.133,0.736,40.404,56.806,-13.036
-0.282,-0.127,0.734,37.024,53.557,-13.871
-0.290,-0.123,0.733,33.845,50.517,-14.507
-0.298,-0.118,0.732,30.904,47.738,-14.861
-0.307,-0.115,0.731,28.201,45.259,-15.009
-0.316,-0.112,0.731,25.821,43.220,-14.957
-0.324,-0.110,0.731,23.835,41.514,-14.784
-0.332,-0.108,0.733,22.301,40.010,-14.542
-0.340,-0.107,0.735,21.385,38.656,-14.225
-0.348,-0.106,0.738,20.853,37.413,-13.858
-0.355,-0.104,0.741,20.575,36.208,-13.486
-0.363,-0.102,0.745,20.440,34.968,-13.144
-0.372,-0.099,0.749,20.382,33.715,-12.817
-0.380,-0.097,0.753,20.363,32.454,-12.487
-0.388,-0.095,0.757,20.355,31.188,-12.183
-0.396,-0.093,0.761,20.333,29.895,-11.910
-0.403,-0.091,0.765,20.259,28.576,-11.654
-0.410,-0.089,0.768,20.118,27.325,-11.397
-0.418,-0.086,0.772,19.913,26.028,-11.190
-0.425,-0.083,0.777,19.522,24.694,-11.046
-0.432,-0.080,0.780,19.006,23.356,-10.927
-0.439,-0.078,0.784,18.401,22.030,-10.830
-0.445,-0.076,0.788,17.765,20.748,-10.732
-0.451,-0.074,0.792,17.139,19.503,-10.632
-0.458,-0.072,0.795,16.562,18.290,-10.523
-0.463,-0.071,0.799,16.056,17.124,-10.391
-0.469,-0.069,0.802,15.625,16.053,-10.230
-0.473,-0.068,0.806,15.297,15.110,-10.034
-0.478,-0.067,0.810,15.048,14.283,-9.803
-0.482,-0.065,0.813,14.815,13.556,-9.534
-0.486,-0.063,0.816,14.553,12.942,-9.207
-0.490,-0.061,0.818,14.279,12.454,-8.851
-0.493,-0.060,0.819,14.021,12.070,-8.497
-0.497,-0.058,0.819,13.799,11.793,-8.148
-0.500,-0.057,0.819,13.629,11.580,-7.808
-0.504,-0.055,0.820,13.499,11.409,-7.489
-0.507,-0.053,0.821,13.391,11.247,-7.221
-0.510,-0.051,0.823,13.280,11.086,-6.974
-0.513,-0.049,0.824,13.172,10.912,-6.751
-0.515,-0.047,0.825,13.027,10.706,-6.542
-0.518,-0.045,0.826,12.830,10.485,-6.353
-0.521,-0.043,0.827,12.564,10.257,-6.175
-0.523,-0.041,0.827,12.218,10.034,-5.996
-0.526,-0.039,0.826,11.817,9.810,-5.818
-0.528,-0.037,0.825,11.402,9.585,-5.639
-0.530,-0.035,0.824,10.999,9.369,-5.460
-0.532,-0.033,0.823,10.630,9.170,-5.268
-0.534,-0.032,0.822,10.314,8.992,-5.066
-0.536,-0.031,0.821,10.069,8.832,-4.843
-0.537,-0.030,0.820,9.858,8.697,-4.605
-0.539,-0.028,0.819,9.673,8.584,-4.352
-0.541,-0.027,0.818,9.519,8.493,-4.071
-0.542,-0.025,0.817,9.391,8.401,-3.772
-0.544,-0.024,0.816,9.254,8.318,-3.468
-0.546,-0.022,0.816,9.101,8.244,-3.175
-0.548,-0.020,0.815,8.906,8.185,-2.903
-0.549,-0.018,0.814,8.665,8.117,-2.662
-0.550,-0.015,0.813,8.356,8.025,-2.451
-0.552,-0.013,0.813,7.975,7.910,-2.269
-0.553,-0.011,0.812,7.521,7.748,-2.135
-0.555,-0.009,0.811,7.000,7.556,-2.020
-0.556,-0.007,0.810,6.470,7.348,-1.911
-0.558,-0.005,0.809,5.945,7.115,-1.816
-0.559,-0.004,0.808,5.432,6.871,-1.719
-0.561,-0.003,0.807,4.961,6.628,-1.614
-0.563,-0.001,0.806,4.536,6.385,-1.515
-0.564,-0.000,0.806,4.159,6.141,-1.426
-0.566,0.001,0.805,3.799,5.899,-1.340
-0.568,0.002,0.806,3.488,5.677,-1.250
-0.569,0.004,0.807,3.189,5.481,-1.156
-0.570,0.005,0.807,2.873,5.308,-1.046
-0.571,0.006,0.807,2.580,5.187,-0.932
-0.572,0.007,0.807,2.331,5.117,-0.813
-0.573,0.007,0.806,2.101,5.072,-0.679
-0.575,0.008,0.805,1.895,5.038,-0.545
-0.576,0.009,0.804,1.708,4.998,-0.410
-0.578,0.009,0.803,1.537,4.953,-0.281
-0.579,0.010,0.803,1.420,4.896,-0.156
-0.581,0.010,0.804,1.385,4.828,-0.039
-0.583,0.010,0.805,1.436,4.747,0.065
-0.584,0.010,0.807,1.519,4.668,0.171
-0.585,0.011,0.808,1.591,4.596,0.277
-0.590,0.011,0.809,1.664,4.542,0.377
-0.591,0.012,0.809,1.715,4.502,0.467
-0.593,0.013,0.809,1.759,4.459,0.557
-0.594,0.014,0.809,1.767,4.402,0.653
-0.596,0.015,0.808,1.731,4.321,0.756
-0.598,0.017,0.808,1.650,4.211,0.860
-0.599,0.017,0.808,1.542,4.073,0.970
-0.601,0.018,0.808,1.437,3.911,1.074
-0.602,0.019,0.808,1.347,3.751,1.177
-0.603,0.019,0.809,1.303,3.600,1.274
-0.604,0.019,0.810,1.295,3.474,1.366
-0.605,0.020,0.811,1.307,3.379,1.451
-0.605,0.020,0.812,1.336,3.312,1.525
-0.606,0.021,0.812,1.357,3.277,1.590
-0.606,0.022,0.812,1.356,3.267,1.643
-0.607,0.023,0.812,1.346,3.270,1.686
-0.607,0.024,0.812,1.322,3.274,1.725
-0.608,0.025,0.811,1.298,3.273,1.762
-0.608,0.026,0.811,1.280,3.267,1.802
-0.609,0.027,0.811,1.264,3.255,1.839
-0.609,0.027,0.811,1.240,3.231,1.881
-0.609,0.028,0.811,1.217,3.209,1.914
-0.609,0.028,0.811,1.199,3.184,1.941
-0.610,0.029,0.810,1.181,3.157,1.960
-0.610,0.029,0.810,1.146,3.121,1.972
-0.611,0.030,0.810,1.099,3.083,1.975
-0.612,0.031,0.809,1.052,3.045,1.977
-0.612,0.032,0.808,1.004,2.994,1.982
-0.612,0.032,0.807,0.970,2.922,1.985
-0.613,0.032,0.806,0.957,2.833,1.984
-0.613,0.033,0.806,0.947,2.727,1.984
-0.613,0.033,0.805,0.933,2.616,1.989
-0.613,0.034,0.804,0.922,2.510,2.000
-0.612,0.034,0.804,0.919,2.409,2.014
-0.612,0.035,0.804,0.923,2.317,2.026
-0.611,0.035,0.803,0.925,2.236,2.030

-0.175,-0.078,1.657,-4.654,-6.815,-4.606
-0.168,-0.088,1.688,-9.252,-13.628,-10.474
-0.160,-0.102,1.721,-12.752,-18.658,-15.529
-0.150,-0.118,1.753,-15.191,-21.728,-19.588
-0.137,-0.135,1.783,-16.877,-23.512,-22.666
-0.124,-0.151,1.813,-18.130,-24.349,-24.740
-0.110,-0.167,1.842,-19.367,-24.611,-26.224
-0.096,-0.183,1.869,-20.837,-24.359,-27.196
-0.083,-0.198,1.891,-22.729,-23.785,-27.710
-0.069,-0.212,1.908,-25.197,-22.938,-27.757
-0.055,-0.229,1.921,-27.740,-21.891,-27.573
-0.040,-0.248,1.928,-29.709,-19.999,-27.243
-0.025,-0.270,1.928,-30.638,-17.064,-26.760
-0.010,-0.295,1.925,-30.065,-12.830,-26.085
0.002,-0.320,1.919,-28.903,-7.560,-25.122
0.014,-0.342,1.911,-26.773,-0.185,-23.883
0.022,-0.361,1.904,-23.282,6.883,-22.482
0.027,-0.379,1.896,-18.719,15.509,-20.828
0.033,-0.392,1.887,-13.350,25.054,-19.107
0.036,-0.402,1.878,-8.001,33.842,-17.503
0.037,-0.410,1.867,-3.012,41.439,-15.948
0.037,-0.417,1.854,1.741,48.032,-14.479
0.038,-0.423,1.839,6.227,54.278,-12.929
0.039,-0.429,1.822,10.540,60.084,-10.955
0.039,-0.436,1.803,15.225,65.370,-8.823
0.040,-0.443,1.782,20.460,70.458,-6.789
0.040,-0.448,1.761,25.645,75.154,-4.870
0.040,-0.452,1.739,30.457,79.685,-3.066
0.039,-0.455,1.717,34.888,84.200,-1.376
0.038,-0.458,1.695,39.067,88.544,0.070
0.036,-0.461,1.672,43.318,92.493,1.150
0.034,-0.462,1.648,47.737,96.196,1.968
0.032,-0.462,1.625,52.326,99.759,2.560
0.029,-0.460,1.601,57.056,103.206,2.889
0.026,-0.457,1.577,61.865,106.538,3.039
0.022,-0.452,1.552,66.408,109.760,3.033
0.018,-0.446,1.527,70.490,112.952,2.893
0.013,-0.439,1.501,73.883,116.366,2.650
0.008,-0.431,1.474,76.558,120.033,2.299
0.002,-0.423,1.446,78.637,123.531,1.838
-0.004,-0.415,1.417,80.373,126.671,1.290
-0.010,-0.408,1.388,82.024,129.376,0.703
-0.017,-0.401,1.359,83.951,131.598,0.086
-0.025,-0.394,1.331,86.105,133.280,-0.546
-0.032,-0.386,1.304,88.442,134.425,-1.211
-0.040,-0.378,1.280,90.814,134.882,-1.911
-0.047,-0.370,1.256,93.045,134.870,-2.643
-0.055,-0.361,1.233,95.011,134.402,-3.425
-0.062,-0.352,1.211,96.486,133.559,-4.224
-0.068,-0.342,1.189,97.524,132.380,-5.036
-0.075,-0.333,1.167,98.075,130.843,-5.855
-0.081,-0.323,1.146,98.172,129.117,-6.658
-0.088,-0.313,1.124,97.908,127.240,-7.446
-0.095,-0.304,1.102,97.283,125.249,-8.209
-0.103,-0.294,1.081,96.441,123.153,-8.921
-0.111,-0.284,1.060,95.382,120.933,-9.581
-0.119,-0.274,1.039,94.127,118.689,-10.192
-0.126,-0.264,1.019,92.707,116.449,-10.735
-0.133,-0.255,1.001,91.158,114.242,-11.210
-0.140,-0.246,0.984,89.570,112.085,-11.634
-0.146,-0.237,0.967,87.966,109.996,-12.010
-0.152,-0.229,0.950,86.346,107.948,-12.297
-0.158,-0.221,0.934,84.720,105.936,-12.474
-0.164,-0.214,0.918,83.111,103.968,-12.557
-0.169,-0.207,0.902,81.533,102.043,-12.594
-0.175,-0.200,0.885,79.992,100.139,-12.563
-0.182,-0.194,0.870,78.360,98.214,-12.465
-0.189,-0.187,0.855,76.573,96.302,-12.333
-0.196,-0.179,0.842,74.701,94.393,-12.236
-0.204,-0.172,0.830,72.828,92.161,-12.213
-0.211,-0.164,0.820,70.910,89.597,-12.234
-0.217,-0.156,0.811,68.885,86.690,-12.266
-0.224,-0.147,0.802,66.663,83.625,-12.296
-0.231,-0.138,0.794,64.197,80.386,-12.357
-0.238,-0.129,0.785,61.311,76.976,-12.529
-0.245,-0.120,0.777,58.014,73.834,-12.821
-0.252,-0.111,0.767,54.310,70.891,-13.106
-0.258,-0.104,0.758,50.240,67.782,-13.328
-0.266,-0.096,0.749,45.972,64.583,-13.527
-0.272,-0.090,0.740,41.663,61.457,-13.698
-0.279,-0.084,0.733,37.576,58.463,-13.830
-0.285,-0.080,0.728,33.911,55.652,-13.878
-0.291,-0.077,0.723,30.745,53.187,-13.802
-0.297,-0.075,0.719,28.066,51.039,-13.592
-0.304,-0.072,0.717,25.724,49.177,-13.215
-0.311,-0.069,0.715,23.718,47.537,-12.584
-0.318,-0.066,0.714,22.044,46.052,-11.757
-0.326,-0.064,0.712,20.688,44.650,-10.747
-0.335,-0.061,0.711,19.678,43.239,-9.553
-0.344,-0.058,0.710,18.943,41.777,-8.262
-0.353,-0.055,0.710,18.361,40.213,-6.985
-0.363,-0.051,0.710,17.843,38.479,-5.776
-0.373,-0.047,0.711,17.286,36.614,-4.638
-0.382,-0.042,0.712,16.693,34.712,-3.590
-0.392,-0.038,0.715,16.128,32.888,-2.609
-0.401,-0.034,0.718,15.589,31.242,-1.683
-0.410,-0.030,0.722,15.038,29.669,-0.885
-0.419,-0.025,0.727,14.319,28.137,-0.241
-0.428,-0.020,0.730,13.444,26.653,0.279
-0.436,-0.016,0.734,12.479,25.139,0.649
-0.445,-0.013,0.737,11.472,23.509,0.907
-0.454,-0.009,0.739,10.455,21.888,1.081
-0.462,-0.006,0.742,9.484,20.262,1.186
-0.469,-0.004,0.744,8.587,18.663,1.241
-0.477,-0.001,0.747,7.803,17.105,1.264
-0.484,0.001,0.750,7.120,15.636,1.291
-0.490,0.003,0.753,6.560,14.276,1.328
-0.496,0.005,0.756,6.114,13.089,1.375
-0.502,0.007,0.759,5.762,12.024,1.448
-0.508,0.009,0.762,5.497,11.090,1.553
-0.514,0.011,0.765,5.331,10.269,1.676
-0.519,0.013,0.767,5.231,9.554,1.813
-0.524,0.015,0.770,5.231,8.918,1.948
-0.528,0.017,0.773,5.269,8.344,2.070
-0.532,0.019,0.775,5.294,7.830,2.170
-0.536,0.022,0.778,5.269,7.374,2.255
-0.539,0.024,0.780,5.211,6.986,2.315
-0.541,0.026,0.782,5.124,6.675,2.356
-0.544,0.028,0.784,5.024,6.427,2.361
-0.546,0.030,0.785,4.911,6.241,2.342
-0.549,0.032,0.786,4.791,6.100,2.294
-0.552,0.034,0.787,3.979,5.963,2.222
-0.555,0.036,0.787,3.828,5.817,2.122
-0.558,0.037,0.788,3.680,5.649,2.004
-0.560,0.039,0.789,3.523,5.460,1.882
-0.563,0.040,0.789,3.375,5.266,1.758
-0.565,0.041,0.790,3.235,5.067,1.631
-0.568,0.042,0.790,3.103,4.882,1.508
-0.570,0.043,0.790,2.960,4.712,1.399
-0.572,0.044,0.789,2.814,4.552,1.306
-0.574,0.044,0.788,2.664,4.395,1.225
-0.576,0.045,0.788,2.468,4.231,1.158
-0.577,0.046,0.787,2.240,4.066,1.105
-0.579,0.047,0.786,2.003,3.896,1.054
-0.580,0.048,0.785,1.808,3.735,0.997
-0.582,0.048,0.785,1.668,3.583,0.942
-0.583,0.049,0.785,1.534,3.464,0.896
-0.584,0.050,0.786,1.399,3.363,0.852
-0.585,0.051,0.786,1.245,3.274,0.811
-0.586,0.052,0.787,1.043,3.193,0.773
-0.587,0.053,0.787,0.778,3.102,0.738
-0.589,0.055,0.786,0.490,3.008,0.698
-0.590,0.056,0.786,0.207,2.906,0.660
-0.592,0.056,0.786,-0.055,2.776,0.626
-0.593,0.057,0.786,-0.305,2.618,0.594
-0.595,0.057,0.785,-0.529,2.460,0.573
-0.596,0.058,0.785,-0.708,2.319,0.561
-0.598,0.058,0.784,-0.841,2.194,0.558
-0.599,0.058,0.783,-0.922,2.090,0.554
-0.600,0.059,0.783,-0.960,2.001,0.550
-0.601,0.060,0.783,-0.980,1.905,0.547
-0.603,0.060,0.783,-1.005,1.797,0.534
-0.604,0.061,0.783,-1.058,1.675,0.514
-0.605,0.062,0.783,-1.149,1.546,0.493
-0.606,0.063,0.783,-1.267,1.406,0.466
-0.608,0.064,0.782,-1.381,1.252,0.431
-0.609,0.065,0.782,-1.487,1.087,0.400
-0.610,0.066,0.782,-1.568,0.920,0.369
-0.611,0.066,0.782,-1.644,0.760,0.335
-0.612,0.067,0.783,-1.713,0.611,0.301
-0.613,0.067,0.783,-1.787,0.483,0.258
-0.614,0.067,0.783,-1.840,0.372,0.213
-0.615,0.067,0.783,-1.868,0.285,0.162
-0.615,0.067,0.783,-1.880,0.228,0.105
-0.616,0.067,0.783,-1.881,0.192,0.046
-0.617,0.068,0.783,-1.852,0.164,-0.013
-0.618,0.068,0.784,-1.349,0.132,-0.069
-0.619,0.068,0.784,-1.260,0.080,-0.122
-0.620,0.068,0.785,-1.185,0.012,-0.170
-0.620,0.068,0.786,-1.131,-0.065,-0.213
-0.621,0.068,0.787,-1.096,-0.136,-0.253
-0.621,0.068,0.787,-1.062,-0.194,-0.295
-0.621,0.068,0.788,-1.016,-0.238,-0.340
-0.622,0.068,0.789,-0.995,-0.275,-0.386
-0.622,0.068,0.790,-0.999,-0.300,-0.432
-0.623,0.068,0.790,-1.000,-0.328,-0.475
-0.623,0.067,0.790,-1.009,-0.365,-0.517
-0.624,0.067,0.790,-1.034,-0.411,-0.555
-0.624,0.067,0.790,-1.050,-0.457,-0.575
-0.624,0.066,0.790,-1.046,-0.494,-0.586
-0.625,0.065,0.791,-1.005,-0.527,-0.585
-0.625,0.064,0.791,-0.946,-0.542,-0.575
-0.625,0.064,0.792,-0.891,-0.542,-0.560
-0.625,0.064,0.793,-0.844,-0.530,-0.545
-0.625,0.063,0.793,-0.822,-0.515,-0.525
-0.625,0.063,0.793,-0.809,-0.508,-0.503
-0.625,0.063,0.793,-0.815,-0.509,-0.471
-0.625,0.063,0.793,-0.844,-0.513,-0.436
-0.625,0.062,0.793,-0.877,-0.515,-0.398
-0.625,0.062,0.793,-0.907,-0.523,-0.349
-0.625,0.061,0.793,-0.929,-0.524,-0.296
-0.625,0.061,0.793,-0.942,-0.507,-0.235
-0.624,0.061,0.793,-0.954,-0.485,-0.175
-0.624,0.061,0.793,-0.964,-0.461,-0.119
-0.624,0.061,0.793,-0.980,-0.442,-0.063
-0.624,0.061,0.793,-1.011,-0.421,-0.006
-0.624,0.061,0.792,-1.074,-0.404,0.053
-0.625,0.062,0.792,-1.136,-0.402,0.113
-0.626,0.062,0.791,-1.185,-0.420,0.175

-0.133,-0.338,1.414,-4.455,-9.722,-4.310
-0.127,-0.346,1.430,-7.132,-17.467,-7.988
-0.122,-0.354,1.446,-9.419,-23.687,-11.036
-0.115,-0.362,1.463,-11.386,-28.082,-13.575
-0.107,-0.371,1.481,-13.048,-31.386,-15.577
-0.098,-0.381,1.502,-14.696,-33.863,-17.235
-0.089,-0.391,1.524,-16.307,-35.507,-18.561
-0.080,-0.402,1.548,-17.844,-36.232,-19.591
-0.071,-0.413,1.572,-19.439,-36.341,-20.281
-0.061,-0.424,1.595,-21.188,-35.934,-20.708
-0.052,-0.435,1.614,-22.898,-35.131,-20.898
-0.043,-0.446,1.631,-24.542,-33.990,-20.850
-0.035,-0.458,1.644,-26.130,-32.696,-20.628
-0.026,-0.469,1.653,-27.432,-30.979,-20.203
-0.017,-0.480,1.660,-28.363,-28.649,-19.585
-0.008,-0.491,1.663,-28.796,-25.343,-18.756
0.000,-0.502,1.666,-28.708,-21.293,-17.729
0.009,-0.512,1.668,-27.972,-17.507,-16.853
0.016,-0.522,1.669,-27.108,-12.940,-15.906
0.023,-0.530,1.672,-26.129,-8.446,-15.066
0.029,-0.539,1.671,-25.172,-0.663,-13.092
0.036,-0.549,1.670,-23.841,7.529,-11.212
0.040,-0.558,1.669,-22.285,15.600,-9.160
0.044,-0.564,1.666,-20.875,23.109,-7.018
0.047,-0.570,1.660,-19.583,30.021,-4.748
0.051,-0.576,1.650,-18.196,36.540,-2.472
0.054,-0.583,1.638,-16.524,43.191,-0.183
0.058,-0.589,1.623,-14.246,50.168,2.124
0.061,-0.596,1.606,-11.470,57.703,4.530
0.064,-0.603,1.588,-8.113,65.653,6.934
0.067,-0.609,1.568,-4.062,73.644,9.231
0.068,-0.615,1.548,0.781,81.104,11.329
0.069,-0.620,1.528,6.271,87.724,13.184
0.068,-0.623,1.509,12.025,93.484,14.812
0.067,-0.625,1.490,17.760,98.376,16.202
0.065,-0.625,1.470,23.063,102.668,17.421
0.063,-0.623,1.449,27.553,106.508,18.511
0.060,-0.619,1.428,31.204,109.854,19.478
0.056,-0.613,1.405,34.010,112.652,20.328
0.051,-0.607,1.382,36.042,114.997,21.107
0.046,-0.600,1.357,37.594,116.916,21.784
0.041,-0.593,1.330,38.937,118.458,22.357
0.034,-0.587,1.303,40.342,119.502,22.829
0.028,-0.581,1.275,42.089,120.208,23.199
0.021,-0.576,1.247,44.449,120.583,23.450
0.015,-0.571,1.221,47.411,118.466,22.457
0.004,-0.561,1.197,48.544,116.409,21.705
0.001,-0.552,1.170,49.897,118.818,22.997
0.001,-0.546,1.144,53.551,118.957,22.396
-0.014,-0.532,1.123,56.539,117.231,21.846
-0.025,-0.522,1.102,59.721,116.029,21.866
-0.031,-0.519,1.081,64.244,117.624,22.988
-0.037,-0.517,1.062,70.437,119.588,25.073
-0.044,-0.509,1.044,77.814,119.625,26.160
-0.054,-0.495,1.025,83.217,118.567,26.128
-0.063,-0.479,1.007,86.421,117.387,26.258
-0.071,-0.466,0.988,88.902,116.105,26.460
-0.081,-0.455,0.969,91.394,114.039,25.922
-0.088,-0.443,0.950,93.783,111.749,23.959
-0.096,-0.426,0.932,95.263,109.127,19.792
-0.105,-0.406,0.916,95.093,105.528,15.033
-0.113,-0.388,0.902,93.618,101.974,12.084
-0.120,-0.376,0.888,92.008,99.213,10.489
-0.126,-0.369,0.875,90.533,97.230,9.794
-0.133,-0.360,0.864,89.236,95.345,9.417
-0.140,-0.350,0.853,87.956,93.548,8.932
-0.145,-0.338,0.843,86.533,91.790,8.305
-0.151,-0.327,0.833,84.998,90.040,7.608
-0.157,-0.317,0.823,83.402,88.169,6.885
-0.163,-0.309,0.813,81.813,86.151,6.160
-0.169,-0.300,0.803,80.238,83.936,5.393
-0.175,-0.291,0.793,78.660,81.523,4.544
-0.185,-0.282,0.784,77.084,78.876,3.640
-0.191,-0.274,0.776,75.614,76.076,2.729
-0.197,-0.266,0.770,74.207,73.230,1.909
-0.203,-0.259,0.765,72.870,70.447,1.255
-0.209,-0.251,0.761,71.603,67.822,0.757
-0.214,-0.244,0.758,70.403,65.390,0.361
-0.220,-0.236,0.756,69.242,63.095,0.066
-0.225,-0.228,0.754,68.059,60.922,-0.138
-0.231,-0.220,0.753,66.844,58.844,-0.260
-0.237,-0.212,0.750,65.406,56.861,-0.310
-0.243,-0.204,0.748,63.602,54.943,-0.290
-0.249,-0.196,0.745,61.663,53.089,-0.251
-0.256,-0.189,0.742,59.703,51.261,-0.203
-0.264,-0.182,0.740,57.796,49.463,-0.150
-0.271,-0.175,0.739,55.977,47.712,-0.089
-0.279,-0.169,0.739,54.261,45.978,-0.017
-0.286,-0.163,0.741,52.664,44.261,0.066
-0.294,-0.157,0.743,51.143,42.600,0.152
-0.301,-0.151,0.746,49.709,41.002,0.232
-0.309,-0.146,0.749,48.372,39.475,0.290
-0.316,-0.140,0.752,47.132,38.023,0.318
-0.324,-0.135,0.755,45.903,36.614,0.330
-0.331,-0.130,0.758,44.638,35.249,0.312
-0.339,-0.124,0.760,43.166,33.876,0.245
-0.346,-0.118,0.761,41.531,32.533,0.149
-0.354,-0.112,0.763,39.807,31.240,0.036
-0.361,-0.107,0.764,38.129,30.023,-0.102
-0.368,-0.103,0.766,36.546,28.862,-0.253
-0.375,-0.098,0.769,35.048,27.748,-0.420
-0.383,-0.095,0.772,33.630,26.671,-0.591
-0.389,-0.091,0.776,32.337,25.636,-0.753
-0.396,-0.088,0.780,31.152,24.640,-0.908
-0.403,-0.086,0.783,30.090,23.683,-1.046
-0.409,-0.083,0.786,29.149,22.767,-1.176
-0.415,-0.081,0.789,28.316,21.876,-1.303
-0.421,-0.078,0.792,27.581,20.992,-1.438
-0.427,-0.075,0.794,26.910,20.129,-1.571
-0.432,-0.072,0.796,26.236,19.301,-1.691
-0.437,-0.069,0.798,25.564,18.547,-1.816
-0.442,-0.066,0.800,24.905,17.846,-1.947
-0.447,-0.064,0.802,24.276,17.193,-2.081
-0.452,-0.062,0.804,23.681,16.580,-2.221
-0.457,-0.060,0.806,23.100,15.993,-2.355
-0.461,-0.058,0.808,22.543,15.420,-2.502
-0.466,-0.056,0.810,21.978,14.837,-2.659
-0.470,-0.054,0.812,21.415,14.256,-2.817
-0.474,-0.053,0.814,20.877,13.685,-2.976
-0.478,-0.051,0.815,20.328,13.129,-3.136
-0.481,-0.050,0.816,19.768,12.590,-3.288
-0.485,-0.049,0.818,19.204,12.073,-3.433
-0.488,-0.047,0.819,18.612,11.556,-3.561
-0.491,-0.046,0.819,17.979,11.066,-3.667
-0.493,-0.045,0.819,17.347,10.642,-3.756
-0.496,-0.044,0.819,16.761,10.290,-3.812
-0.498,-0.043,0.820,16.251,9.987,-3.846
-0.500,-0.043,0.822,15.804,9.727,-3.865
-0.503,-0.042,0.823,15.377,9.510,-3.879
-0.505,-0.042,0.824,14.940,9.331,-3.887
-0.507,-0.041,0.825,13.746,9.188,-3.879
-0.509,-0.041,0.826,13.298,9.073,-3.851
-0.511,-0.040,0.826,12.844,8.950,-3.821
-0.513,-0.039,0.826,12.364,8.815,-3.780
-0.515,-0.039,0.826,11.851,8.666,-3.724
-0.517,-0.038,0.826,11.333,8.494,-3.649
-0.519,-0.038,0.826,10.825,8.284,-3.555
-0.522,-0.038,0.825,10.364,8.049,-3.441
-0.524,-0.038,0.825,9.951,7.806,-3.319
-0.526,-0.037,0.824,9.586,7.556,-3.185
-0.528,-0.037,0.824,9.265,7.304,-3.036
-0.530,-0.037,0.823,8.952,7.053,-2.871
-0.532,-0.036,0.823,8.655,6.808,-2.698
-0.533,-0.036,0.822,8.392,6.559,-2.515
-0.535,-0.035,0.822,8.142,6.295,-2.336
-0.537,-0.034,0.821,7.873,6.021,-2.155
-0.538,-0.032,0.821,7.577,5.764,-1.969
-0.539,-0.031,0.821,7.269,5.512,-1.775
-0.541,-0.030,0.821,6.971,5.266,-1.578
-0.543,-0.029,0.821,6.687,5.028,-1.394
-0.545,-0.028,0.821,6.392,4.798,-1.216
-0.546,-0.027,0.821,6.098,4.583,-1.046
-0.548,-0.025,0.820,5.791,4.365,-0.880
-0.550,-0.024,0.819,5.471,4.152,-0.727
-0.551,-0.023,0.819,5.157,3.965,-0.578
-0.552,-0.022,0.818,4.861,3.822,-0.434
-0.553,-0.021,0.817,4.601,3.714,-0.292
-0.554,-0.020,0.817,4.379,3.645,-0.159
-0.555,-0.020,0.817,4.194,3.595,-0.029
-0.556,-0.019,0.817,4.061,3.535,0.109
-0.557,-0.018,0.818,3.975,3.436,0.242
-0.559,-0.018,0.819,3.858,3.303,0.370
-0.561,-0.017,0.820,3.716,3.151,0.500
-0.562,-0.016,0.820,3.540,2.980,0.625
-0.563,-0.015,0.819,3.366,2.788,0.754
-0.564,-0.014,0.819,3.211,2.579,0.886
-0.565,-0.014,0.819,3.095,2.334,1.020
-0.566,-0.013,0.819,3.004,2.058,1.145
-0.567,-0.012,0.820,2.895,1.773,1.267
-0.568,-0.011,0.820,2.769,1.513,1.389
-0.568,-0.010,0.819,2.644,1.302,1.519
-0.568,-0.010,0.819,2.537,1.156,1.659
-0.568,-0.009,0.819,2.478,1.041,1.798
-0.568,-0.009,0.819,2.452,0.962,1.930
-0.569,-0.008,0.820,2.445,0.906,2.061
-0.569,-0.008,0.821,2.483,0.864,2.185
-0.570,-0.008,0.822,2.555,0.828,2.310
-0.570,-0.007,0.823,2.648,0.801,2.433
-0.570,-0.007,0.824,2.738,0.778,2.557
-0.571,-0.006,0.825,2.794,0.753,2.683
-0.571,-0.005,0.825,2.817,0.736,2.806
-0.571,-0.004,0.825,2.806,0.735,2.925
-0.571,-0.003,0.826,2.761,0.729,3.039
-0.572,-0.002,0.826,2.686,0.726,3.150
-0.573,-0.000,0.826,2.560,0.706,3.259
-0.573,0.001,0.825,2.390,0.674,3.368
-0.574,0.002,0.825,2.196,0.651,3.475
-0.574,0.003,0.825,2.011,0.632,3.573
-0.575,0.003,0.826,1.837,0.617,3.666
-0.575,0.004,0.826,1.671,0.604,3.755
-0.575,0.005,0.826,1.505,0.593,3.845
-0.575,0.005,0.827,1.342,0.579,3.939
-0.576,0.006,0.827,1.183,0.559,4.022
-0.577,0.006,0.827,1.028,0.532,4.102
-0.577,0.007,0.827,0.876,0.490,4.185
-0.578,0.008,0.827,0.731,0.432,4.269
-0.579,0.008,0.827,0.610,0.355,4.352
-0.580,0.009,0.827,0.518,0.271,4.434
-0.580,0.009,0.827,0.457,0.199,4.513

-0.146,-0.509,1.208,-1.731,-5.746,-0.179
-0.142,-0.515,1.221,-3.302,-11.326,-4.622
-0.136,-0.522,1.237,-4.345,-16.486,-8.815
-0.130,-0.528,1.252,-5.010,-21.450,-12.571
-0.123,-0.535,1.269,-5.269,-26.172,-15.704
-0.115,-0.543,1.285,-5.361,-30.444,-18.271
-0.105,-0.551,1.301,-5.364,-33.844,-20.193
-0.094,-0.558,1.319,-5.444,-36.519,-21.578
-0.082,-0.568,1.337,-5.734,-38.515,-22.467
-0.068,-0.577,1.355,-6.221,-39.817,-23.015
-0.054,-0.588,1.373,-6.915,-40.133,-23.253
-0.040,-0.599,1.388,-7.747,-39.764,-23.228
-0.025,-0.612,1.403,-8.547,-38.835,-22.927
-0.009,-0.627,1.416,-9.056,-37.533,-22.496
0.007,-0.644,1.428,-9.221,-35.558,-21.918
0.022,-0.662,1.441,-9.102,-33.018,-21.252
0.032,-0.677,1.454,-8.860,-29.511,-20.385
0.044,-0.690,1.467,-8.576,-25.978,-18.638
0.054,-0.706,1.478,-8.369,-19.103,-16.485
0.059,-0.718,1.490,-7.970,-14.071,-14.665
0.062,-0.725,1.499,-7.811,-9.737,-12.597
0.066,-0.731,1.504,-7.866,-5.258,-10.036
0.071,-0.738,1.505,-7.870,-0.142,-6.910
0.076,-0.745,1.503,-7.550,5.312,-3.538
0.080,-0.752,1.500,-6.940,10.833,-0.139
0.083,-0.758,1.494,-5.801,16.563,3.042
0.085,-0.763,1.487,-4.016,22.595,6.034
0.088,-0.769,1.479,-1.475,29.101,8.900
0.090,-0.775,1.468,1.935,36.105,11.715
0.093,-0.779,1.456,6.608,43.585,14.533
0.094,-0.782,1.441,12.140,51.434,17.274
0.095,-0.784,1.425,18.386,59.438,19.899
0.095,-0.784,1.408,25.161,67.458,22.327
0.095,-0.781,1.389,32.076,75.310,24.581
0.093,-0.777,1.370,38.853,82.557,26.609
0.090,-0.771,1.350,45.287,89.006,28.342
0.086,-0.763,1.331,51.094,94.560,29.767
0.082,-0.755,1.311,56.004,99.098,30.882
0.077,-0.745,1.293,59.671,102.622,31.623
0.072,-0.734,1.275,62.406,105.261,32.147
0.068,-0.724,1.258,64.331,107.259,32.504
0.064,-0.713,1.241,65.695,108.796,32.759
0.059,-0.702,1.224,66.725,109.839,32.908
0.055,-0.692,1.208,67.552,110.536,32.958
0.050,-0.682,1.190,68.299,110.989,32.964
0.044,-0.673,1.171,69.043,111.283,32.959
0.039,-0.663,1.152,69.859,111.494,32.914
0.033,-0.653,1.132,70.743,111.906,32.062
0.012,-0.637,1.116,70.374,110.863,30.851
0.011,-0.621,1.090,70.373,110.802,31.019
0.012,-0.618,1.070,70.840,112.664,30.482
0.001,-0.603,1.054,71.518,111.484,29.361
-0.011,-0.590,1.037,72.159,110.553,28.964
-0.017,-0.584,1.019,73.804,111.648,29.224
-0.022,-0.582,1.004,77.013,114.936,30.496
-0.027,-0.577,0.989,81.878,116.839,31.385
-0.036,-0.562,0.975,86.110,116.716,31.070
-0.048,-0.545,0.961,88.446,116.118,30.813
-0.057,-0.533,0.948,90.136,115.473,30.544
-0.065,-0.523,0.935,92.099,114.209,29.715
-0.074,-0.512,0.920,94.190,112.215,27.427
-0.082,-0.497,0.907,95.537,109.996,23.399
-0.091,-0.478,0.895,95.471,107.578,18.951
-0.101,-0.461,0.883,94.317,104.661,16.688
-0.109,-0.449,0.872,92.756,102.114,14.987
-0.117,-0.440,0.860,91.293,100.126,13.982
-0.123,-0.431,0.849,90.021,98.562,13.215
-0.130,-0.420,0.839,88.892,97.092,12.437
-0.138,-0.409,0.830,87.683,95.455,11.561
-0.146,-0.397,0.822,86.310,93.744,10.609
-0.153,-0.386,0.813,84.834,92.017,9.560
-0.160,-0.376,0.806,83.269,90.289,8.488
-0.167,-0.366,0.798,81.685,88.469,7.383
-0.174,-0.357,0.790,80.009,86.409,6.244
-0.180,-0.348,0.784,78.167,84.165,5.150
-0.185,-0.340,0.777,76.287,81.935,4.137
-0.191,-0.333,0.771,74.471,79.824,3.294
-0.196,-0.327,0.764,72.828,77.789,2.575
-0.202,-0.320,0.758,71.330,75.888,2.100
-0.207,-0.313,0.753,69.950,74.133,1.768
-0.212,-0.306,0.747,68.650,72.480,1.536
-0.219,-0.299,0.742,67.415,70.864,1.387
-0.225,-0.292,0.738,66.218,69.239,1.293
-0.232,-0.286,0.734,65.054,67.590,1.244
-0.239,-0.279,0.731,63.916,65.913,1.224
-0.245,-0.272,0.729,62.780,64.217,1.219
-0.252,-0.265,0.728,61.564,62.526,1.254
-0.258,-0.258,0.726,60.265,60.856,1.336
-0.264,-0.251,0.725,58.903,59.218,1.467
-0.271,-0.244,0.723,57.480,57.610,1.629
-0.278,-0.237,0.722,55.972,56.048,1.823
-0.285,-0.230,0.721,54.408,54.496,2.045
-0.292,-0.224,0.719,52.791,52.930,2.270
-0.300,-0.217,0.719,51.101,51.319,2.463
-0.309,-0.212,0.718,49.415,49.686,2.615
-0.317,-0.206,0.717,47.757,48.013,2.735
-0.325,-0.200,0.717,46.153,46.313,2.822
-0.333,-0.195,0.718,44.584,44.596,2.877
-0.341,-0.190,0.720,43.064,42.885,2.919
-0.348,-0.185,0.722,41.612,41.223,2.950
-0.355,-0.180,0.724,40.258,39.619,2.971
-0.363,-0.175,0.727,38.995,38.083,2.979
-0.370,-0.170,0.730,37.777,36.587,2.982
-0.378,-0.165,0.732,36.568,35.110,2.988
-0.385,-0.161,0.733,35.377,33.657,2.998
-0.393,-0.157,0.735,34.214,32.233,3.004
-0.400,-0.153,0.737,33.125,30.861,3.001
-0.407,-0.149,0.739,32.149,29.531,2.992
-0.414,-0.145,0.741,31.336,28.257,2.972
-0.420,-0.142,0.743,30.646,27.050,2.950
-0.426,-0.138,0.746,30.047,25.913,2.931
-0.432,-0.135,0.749,29.507,24.859,2.917
-0.438,-0.132,0.752,29.008,23.886,2.908
-0.443,-0.128,0.755,28.546,22.961,2.883
-0.449,-0.125,0.758,28.126,22.081,2.842
-0.454,-0.122,0.762,27.736,21.229,2.788
-0.459,-0.118,0.765,27.352,20.411,2.721
-0.464,-0.115,0.769,26.925,19.609,2.638
-0.469,-0.111,0.772,26.400,18.851,2.550
-0.473,-0.107,0.775,25.778,18.149,2.458
-0.477,-0.103,0.777,25.087,17.487,2.356
-0.481,-0.100,0.779,24.354,16.845,2.241
-0.485,-0.096,0.780,23.537,16.240,2.118
-0.489,-0.092,0.782,22.665,15.669,1.984
-0.493,-0.089,0.783,21.788,15.121,1.845
-0.497,-0.087,0.785,20.956,14.579,1.705
-0.501,-0.084,0.787,20.158,14.047,1.563
-0.504,-0.082,0.789,19.380,13.553,1.436
-0.507,-0.080,0.791,18.636,13.116,1.312
-0.510,-0.079,0.792,17.949,12.710,1.198
-0.513,-0.078,0.793,17.325,12.339,1.081
-0.516,-0.076,0.794,16.763,11.989,0.961
-0.518,-0.074,0.795,16.227,11.649,0.852
-0.521,-0.073,0.796,15.713,11.309,0.753
-0.524,-0.071,0.797,15.200,10.961,0.659
-0.526,-0.070,0.798,14.672,10.617,0.569
-0.529,-0.069,0.798,14.141,10.289,0.493
-0.531,-0.068,0.799,13.647,9.971,0.422
-0.533,-0.067,0.799,13.205,9.659,0.352
-0.535,-0.066,0.800,12.809,9.349,0.287
-0.537,-0.065,0.801,12.481,9.045,0.237
-0.539,-0.064,0.802,12.168,8.753,0.202
-0.541,-0.063,0.803,11.877,8.480,0.172
-0.543,-0.062,0.804,11.592,8.209,0.149
-0.544,-0.061,0.805,11.299,7.939,0.138
-0.546,-0.060,0.805,10.990,7.678,0.142
-0.547,-0.059,0.805,10.654,7.442,0.153
-0.549,-0.057,0.805,10.299,7.229,0.178
-0.550,-0.056,0.805,9.961,7.022,0.212
-0.552,-0.055,0.805,9.641,6.815,0.249
-0.553,-0.054,0.805,9.338,6.602,0.289
-0.555,-0.054,0.805,9.059,6.380,0.329
-0.557,-0.053,0.805,8.805,6.138,0.369
-0.559,-0.053,0.805,8.559,5.895,0.404
-0.560,-0.052,0.805,8.333,5.654,0.437
-0.561,-0.051,0.805,8.148,5.414,0.474
-0.563,-0.050,0.806,7.976,5.182,0.512
-0.564,-0.049,0.806,7.820,4.943,0.550
-0.565,-0.049,0.807,7.672,4.717,0.589
-0.566,-0.048,0.807,7.521,4.520,0.631
-0.568,-0.047,0.807,7.388,4.332,0.674
-0.569,-0.046,0.807,7.272,4.138,0.718
-0.571,-0.044,0.807,7.165,3.931,0.758
-0.572,-0.043,0.808,7.056,3.712,0.798
-0.574,-0.042,0.808,6.902,3.480,0.838
-0.575,-0.041,0.808,6.727,3.265,0.881
-0.576,-0.040,0.808,6.544,3.075,0.921
-0.577,-0.039,0.808,6.387,2.903,0.952
-0.578,-0.038,0.808,6.242,2.744,0.979
-0.578,-0.037,0.809,6.109,2.600,1.011
-0.579,-0.036,0.809,5.983,2.448,1.028
-0.580,-0.035,0.809,5.853,2.283,1.038
-0.581,-0.034,0.809,5.740,2.115,1.042
-0.582,-0.033,0.810,5.651,1.946,1.041
-0.582,-0.032,0.810,5.575,1.766,1.035
-0.583,-0.031,0.811,5.504,1.594,1.027
-0.583,-0.030,0.811,5.421,1.421,1.025
-0.584,-0.029,0.811,5.315,1.250,1.030
-0.584,-0.028,0.811,5.170,1.086,1.045
-0.585,-0.027,0.811,5.035,0.937,1.056
-0.585,-0.026,0.811,4.935,0.797,1.067
-0.585,-0.025,0.812,4.843,0.667,1.080
-0.585,-0.024,0.812,4.751,0.551,1.084
-0.585,-0.023,0.812,4.650,0.441,1.091
-0.585,-0.022,0.813,4.534,0.337,1.097
-0.585,-0.021,0.813,4.417,0.241,1.090
-0.585,-0.021,0.813,4.297,0.141,1.076
-0.585,-0.020,0.813,4.179,0.047,1.063
-0.585,-0.019,0.813,4.053,-0.061,1.048
-0.586,-0.018,0.813,3.915,-0.184,1.034
-0.586,-0.017,0.814,3.777,-0.312,1.021
-0.586,-0.017,0.813,3.650,-0.439,1.007
-0.586,-0.016,0.813,3.532,-0.564,0.988
-0.587,-0.016,0.813,3.417,-0.685,0.975
-0.587,-0.015,0.812,3.288,-0.804,0.966
-0.587,-0.015,0.812,3.154,-0.911,0.960
-0.587,-0.014,0.812,3.028,-1.011,0.956
-0.587,-0.014,0.812,2.936,-1.107,0.957
-0.587,-0.014,0.812,2.895,-1.205,0.958

-0.236,-0.402,1.238,0.121,-9.756,-4.644
-0.228,-0.409,1.261,-1.964,-17.200,-10.043
-0.216,-0.420,1.288,-3.800,-23.486,-14.910
-0.204,-0.434,1.318,-5.260,-28.715,-18.781
-0.190,-0.449,1.350,-6.273,-32.358,-21.683
-0.175,-0.466,1.382,-6.897,-34.687,-23.730
-0.159,-0.484,1.413,-7.263,-35.741,-24.722
-0.143,-0.503,1.443,-7.562,-35.751,-25.109
-0.126,-0.521,1.472,-7.859,-34.871,-25.038
-0.111,-0.538,1.499,-8.179,-33.666,-24.634
-0.097,-0.554,1.522,-8.593,-32.328,-23.872
-0.085,-0.567,1.543,-9.140,-30.674,-22.749
-0.074,-0.578,1.558,-9.876,-28.675,-21.323
-0.066,-0.587,1.571,-10.793,-26.605,-19.606
-0.060,-0.594,1.581,-11.922,-24.636,-17.590
-0.054,-0.599,1.589,-13.289,-22.835,-15.497
-0.049,-0.603,1.595,-14.830,-21.266,-13.401
-0.046,-0.607,1.598,-16.566,-20.077,-11.457
-0.043,-0.611,1.599,-18.490,-18.989,-9.203
-0.039,-0.617,1.599,-20.037,-18.061,-7.270
-0.035,-0.624,1.596,-21.527,-15.952,-4.137
-0.030,-0.633,1.591,-22.004,-13.615,-1.169
-0.027,-0.642,1.585,-21.760,-11.187,1.750
-0.023,-0.651,1.577,-20.851,-8.622,4.598
-0.019,-0.660,1.567,-19.180,-5.845,7.391
-0.015,-0.669,1.555,-16.215,-2.581,10.059
-0.011,-0.678,1.542,-11.591,1.209,12.586
-0.007,-0.685,1.528,-3.649,5.606,15.087
-0.004,-0.691,1.513,4.664,10.497,17.476
-0.002,-0.695,1.500,14.140,15.674,19.648
-0.001,-0.698,1.487,24.248,20.855,21.540
-0.001,-0.698,1.475,34.245,25.824,23.159
-0.002,-0.697,1.463,43.627,30.390,24.487
-0.003,-0.694,1.451,51.928,34.456,25.490
-0.005,-0.689,1.440,58.844,38.082,26.217
-0.008,-0.682,1.428,64.029,41.338,26.599
-0.010,-0.676,1.415,67.959,44.319,26.752
-0.012,-0.669,1.401,70.758,47.159,26.744
-0.014,-0.662,1.385,72.702,49.986,26.620
-0.016,-0.654,1.368,74.084,52.762,26.391
-0.019,-0.646,1.349,75.065,55.621,26.074
-0.021,-0.638,1.328,75.786,58.643,25.701
-0.025,-0.630,1.307,76.590,61.693,25.286
-0.028,-0.622,1.286,77.659,64.650,24.817
-0.032,-0.615,1.264,79.172,67.519,24.294
-0.037,-0.608,1.243,81.288,70.234,23.705
-0.037,-0.603,1.223,84.156,71.722,22.672
-0.041,-0.595,1.205,87.095,73.107,21.820
-0.045,-0.586,1.188,90.712,79.732,22.269
-0.046,-0.576,1.168,97.384,79.903,19.092
-0.062,-0.556,1.156,100.126,79.533,16.565
-0.064,-0.544,1.136,102.031,81.652,15.795
-0.061,-0.540,1.117,105.402,88.617,15.471
-0.065,-0.536,1.099,110.376,93.655,15.183
-0.071,-0.527,1.083,115.567,97.699,14.846
-0.077,-0.514,1.066,119.655,100.972,14.523
-0.082,-0.501,1.049,122.758,102.998,14.044
-0.087,-0.487,1.031,125.033,102.931,11.655
-0.095,-0.469,1.013,126.066,101.303,6.408
-0.103,-0.449,0.997,125.245,99.309,0.449
-0.111,-0.430,0.981,123.250,97.375,-4.097
-0.114,-0.417,0.964,120.997,95.863,-6.911
-0.117,-0.409,0.947,118.970,95.031,-8.586
-0.121,-0.400,0.932,117.343,94.462,-9.619
-0.127,-0.388,0.918,115.768,93.812,-10.570
-0.132,-0.376,0.905,114.061,93.052,-11.515
-0.136,-0.364,0.894,112.258,92.114,-12.462
-0.140,-0.353,0.883,110.388,91.064,-13.358
-0.144,-0.343,0.872,108.467,89.929,-14.158
-0.148,-0.333,0.859,106.434,88.711,-14.864
-0.151,-0.322,0.846,104.343,87.401,-15.527
-0.155,-0.311,0.832,102.242,86.015,-16.149
-0.159,-0.300,0.817,99.955,84.562,-16.765
-0.163,-0.290,0.804,97.362,83.087,-17.352
-0.167,-0.280,0.792,94.613,81.607,-17.834
-0.172,-0.271,0.781,91.891,80.127,-18.177
-0.177,-0.263,0.772,89.296,78.522,-18.431
-0.182,-0.255,0.764,86.804,76.813,-18.551
-0.187,-0.247,0.758,84.345,74.882,-18.577
-0.192,-0.238,0.754,81.766,72.825,-18.521
-0.197,-0.230,0.749,79.008,70.702,-18.372
-0.202,-0.221,0.744,75.865,68.598,-18.093
-0.208,-0.212,0.739,72.425,66.510,-17.734
-0.214,-0.204,0.734,68.664,64.468,-17.326
-0.220,-0.195,0.729,64.736,62.379,-16.887
-0.228,-0.188,0.723,60.764,60.311,-16.359
-0.235,-0.181,0.717,56.954,58.298,-15.770
-0.243,-0.174,0.713,53.598,56.347,-15.117
-0.252,-0.169,0.710,50.735,54.433,-14.427
-0.261,-0.164,0.709,48.389,52.551,-13.707
-0.270,-0.159,0.709,46.515,50.701,-12.966
-0.278,-0.155,0.710,44.992,48.924,-12.213
-0.286,-0.149,0.712,43.714,47.244,-11.451
-0.293,-0.144,0.714,42.628,45.664,-10.699
-0.300,-0.138,0.717,41.673,44.162,-9.967
-0.308,-0.132,0.719,40.738,42.697,-9.255
-0.315,-0.125,0.722,39.739,41.245,-8.582
-0.324,-0.119,0.723,38.644,39.799,-7.955
-0.333,-0.113,0.725,37.425,38.276,-7.385
-0.342,-0.107,0.728,36.147,36.722,-6.899
-0.351,-0.101,0.730,34.814,35.127,-6.504
-0.360,-0.096,0.734,33.515,33.493,-6.174
-0.368,-0.091,0.738,32.257,31.855,-5.900
-0.376,-0.087,0.742,31.032,30.245,-5.669
-0.383,-0.083,0.747,29.835,28.708,-5.471
-0.390,-0.079,0.752,28.663,27.262,-5.298
-0.396,-0.076,0.756,27.547,25.921,-5.138
-0.403,-0.072,0.759,26.513,24.664,-4.973
-0.409,-0.069,0.762,25.563,23.484,-4.804
-0.416,-0.066,0.765,24.699,22.365,-4.616
-0.422,-0.063,0.768,23.935,21.308,-4.412
-0.427,-0.060,0.770,23.282,20.339,-4.200
-0.433,-0.056,0.773,22.733,19.457,-3.984
-0.438,-0.054,0.776,22.289,18.679,-3.766
-0.443,-0.051,0.780,21.912,18.004,-3.555
-0.448,-0.048,0.784,21.583,17.420,-3.351
-0.453,-0.046,0.788,21.288,16.922,-3.166
-0.458,-0.043,0.791,21.008,16.473,-2.998
-0.463,-0.040,0.794,20.722,16.049,-2.849
-0.467,-0.037,0.797,20.432,15.638,-2.732
-0.472,-0.034,0.799,20.127,15.235,-2.636
-0.476,-0.031,0.802,19.807,14.828,-2.561
-0.480,-0.028,0.804,19.487,14.396,-2.496
-0.484,-0.025,0.806,19.139,13.963,-2.446
-0.487,-0.022,0.809,18.755,13.551,-2.405
-0.490,-0.019,0.811,18.293,13.182,-2.376
-0.493,-0.016,0.813,17.780,12.862,-2.344
-0.496,-0.013,0.814,17.211,12.583,-2.307
-0.499,-0.010,0.815,16.605,12.332,-2.279
-0.502,-0.008,0.816,15.962,12.091,-2.263
-0.505,-0.005,0.817,15.300,11.841,-2.252
-0.508,-0.003,0.817,14.624,11.594,-2.237
-0.511,-0.001,0.817,13.982,11.346,-2.232
-0.514,0.001,0.817,13.410,11.096,-2.225
-0.516,0.002,0.817,12.894,10.837,-2.215
-0.519,0.003,0.817,12.407,10.582,-2.199
-0.521,0.005,0.816,11.942,10.344,-2.184
-0.523,0.006,0.816,11.510,10.118,-2.164
-0.525,0.008,0.816,11.124,9.893,-2.150
-0.528,0.009,0.815,10.791,9.674,-2.132
-0.530,0.011,0.815,10.470,9.461,-2.113
-0.532,0.012,0.814,10.155,9.242,-2.093
-0.534,0.014,0.814,9.847,9.021,-2.076
-0.536,0.015,0.814,9.568,8.785,-2.058
-0.538,0.016,0.814,9.320,8.540,-2.042
-0.540,0.018,0.814,9.097,8.294,-2.025
-0.541,0.019,0.814,8.892,8.043,-1.997
-0.543,0.020,0.814,8.685,7.800,-1.965
-0.544,0.022,0.814,8.467,7.566,-1.933
-0.546,0.023,0.814,8.232,7.341,-1.901
-0.547,0.025,0.813,7.995,7.128,-1.870
-0.549,0.026,0.813,7.749,6.920,-1.840
-0.550,0.027,0.813,7.503,6.714,-1.813
-0.552,0.028,0.812,7.239,6.517,-1.786
-0.553,0.030,0.811,6.959,6.330,-1.756
-0.555,0.031,0.810,6.679,6.157,-1.729
-0.557,0.032,0.809,6.410,5.995,-1.701
-0.558,0.033,0.809,6.171,5.825,-1.672
-0.560,0.033,0.809,5.957,5.650,-1.647
-0.562,0.034,0.809,5.752,5.456,-1.626
-0.564,0.034,0.809,5.554,5.256,-1.611
-0.566,0.035,0.809,5.374,5.061,-1.610
-0.567,0.035,0.809,5.208,4.877,-1.613
-0.568,0.036,0.809,5.058,4.701,-1.622
-0.569,0.037,0.809,4.905,4.543,-1.631
-0.570,0.037,0.809,4.731,4.404,-1.630
-0.571,0.038,0.808,4.521,4.284,-1.624
-0.571,0.039,0.807,4.283,4.169,-1.610
-0.572,0.040,0.806,4.034,4.054,-1.592
-0.573,0.040,0.805,3.783,3.933,-1.571
-0.574,0.040,0.804,3.555,3.800,-1.545
-0.575,0.040,0.803,3.363,3.643,-1.521
-0.577,0.039,0.802,3.216,3.452,-1.506
-0.578,0.039,0.802,3.110,3.227,-1.490
-0.578,0.039,0.802,3.030,2.964,-1.477
-0.579,0.039,0.802,2.968,2.674,-1.459
-0.579,0.038,0.802,2.941,2.392,-1.443
-0.579,0.037,0.802,2.945,2.145,-1.417
-0.579,0.037,0.802,3.002,1.934,-1.371
-0.579,0.036,0.802,3.098,1.751,-1.313
-0.579,0.035,0.801,3.222,1.585,-1.248
-0.579,0.035,0.800,3.377,1.436,-1.176
-0.580,0.034,0.800,3.558,1.294,-1.104
-0.580,0.033,0.800,3.769,1.159,-1.037
-0.581,0.032,0.800,4.024,1.022,-0.971
-0.581,0.031,0.801,4.315,0.878,-0.906
-0.582,0.031,0.802,4.631,0.738,-0.825
-0.582,0.031,0.804,4.918,0.602,-0.736
-0.583,0.031,0.805,5.167,0.455,-0.639
-0.583,0.032,0.806,5.365,0.302,-0.543
-0.584,0.032,0.807,5.489,0.128,-0.450
-0.585,0.034,0.807,5.529,-0.069,-0.359
-0.587,0.035,0.807,5.472,-0.311,-0.273
-0.588,0.036,0.807,5.320,-0.585,-0.212
-0.590,0.037,0.808,5.087,-0.883,-0.164
-0.591,0.038,0.808,4.813,-1.191,-0.124
-0.592,0.039,0.809,4.532,-1.481,-0.105
-0.592,0.039,0.811,4.266,-1.728,-0.088
-0.593,0.040,0.812,4.016,-1.922,-0.087

-0.214,-0.318,1.350,-1.743,-11.281,-4.981
-0.209,-0.329,1.367,-6.496,-18.986,-9.388
-0.203,-0.342,1.384,-9.863,-24.691,-13.158
-0.196,-0.357,1.400,-11.853,-29.009,-16.281
-0.189,-0.373,1.417,-12.690,-32.205,-18.759
-0.182,-0.387,1.436,-12.657,-34.603,-20.448
-0.175,-0.401,1.457,-12.342,-36.338,-21.637
-0.167,-0.413,1.479,-11.968,-37.358,-22.376
-0.156,-0.426,1.502,-11.682,-37.775,-22.573
-0.149,-0.440,1.524,-11.582,-37.840,-22.483
-0.139,-0.452,1.545,-11.709,-37.915,-22.061
-0.128,-0.467,1.563,-11.919,-37.333,-21.527
-0.119,-0.478,1.581,-12.634,-36.691,-20.917
-0.110,-0.487,1.596,-14.601,-35.914,-20.080
-0.100,-0.498,1.609,-16.894,-35.124,-19.055
-0.091,-0.511,1.619,-18.864,-34.219,-17.908
-0.082,-0.526,1.625,-20.209,-33.159,-16.541
-0.073,-0.542,1.628,-20.789,-31.906,-14.795
-0.066,-0.558,1.629,-20.527,-30.447,-12.611
-0.059,-0.574,1.630,-19.834,-28.659,-10.194
-0.054,-0.588,1.629,-18.893,-26.694,-7.798
-0.050,-0.600,1.627,-17.586,-23.714,-4.689
-0.046,-0.611,1.624,-15.778,-20.580,-1.573
-0.044,-0.618,1.622,-14.054,-17.699,1.394
-0.042,-0.623,1.614,-12.624,-15.192,4.093
-0.040,-0.627,1.609,-11.496,-12.756,6.708
-0.038,-0.630,1.603,-10.600,-10.325,9.380
-0.036,-0.633,1.595,-9.795,-7.994,11.915
-0.034,-0.636,1.586,-9.088,-5.698,14.282
-0.032,-0.639,1.576,-8.428,-3.351,16.549
-0.029,-0.641,1.564,-7.802,-0.969,18.629
-0.027,-0.644,1.551,-7.147,1.458,20.474
-0.024,-0.647,1.537,-6.302,3.960,22.028
-0.021,-0.650,1.522,-4.938,6.590,23.267
-0.018,-0.653,1.506,-3.150,9.489,24.384
-0.015,-0.656,1.488,-0.696,12.963,25.510
-0.013,-0.660,1.469,2.911,16.819,26.538
-0.012,-0.663,1.450,7.905,20.572,27.227
-0.011,-0.663,1.430,14.018,24.316,27.537
-0.010,-0.662,1.409,21.059,28.446,27.703
-0.011,-0.659,1.388,28.693,32.802,27.750
-0.013,-0.655,1.368,36.913,37.144,27.658
-0.015,-0.649,1.348,45.456,41.456,27.450
-0.018,-0.643,1.330,53.943,45.730,27.128
-0.022,-0.635,1.312,62.194,49.744,26.687
-0.026,-0.626,1.295,69.963,53.415,26.136
-0.031,-0.617,1.279,77.045,56.710,25.491
-0.036,-0.602,1.263,83.057,59.610,24.656
-0.042,-0.590,1.246,88.071,62.060,23.691
-0.048,-0.577,1.228,92.009,64.049,22.617
-0.055,-0.563,1.211,94.870,65.563,21.424
-0.062,-0.549,1.192,96.781,66.619,20.122
-0.069,-0.535,1.172,97.973,67.421,18.714
-0.076,-0.523,1.153,98.669,68.065,17.205
-0.082,-0.511,1.135,99.060,68.594,15.560
-0.088,-0.500,1.119,99.154,69.032,13.758
-0.095,-0.489,1.103,99.067,69.393,11.863
-0.100,-0.478,1.089,98.815,69.713,9.909
-0.105,-0.467,1.076,98.436,70.013,7.917
-0.110,-0.457,1.063,97.979,70.285,5.908
-0.114,-0.447,1.050,97.460,70.558,3.917
-0.118,-0.438,1.039,96.903,70.794,1.966
-0.122,-0.428,1.027,96.294,70.975,0.051
-0.126,-0.419,1.015,95.550,71.038,-1.776
-0.130,-0.410,1.003,94.708,71.036,-3.505
-0.133,-0.401,0.990,93.821,71.056,-5.168
-0.136,-0.392,0.977,92.928,71.190,-6.755
-0.139,-0.383,0.966,92.077,71.291,-8.257
-0.142,-0.375,0.955,91.318,71.316,-9.689
-0.145,-0.367,0.946,90.725,71.330,-11.003
-0.148,-0.358,0.938,90.297,71.449,-12.269
-0.150,-0.350,0.930,90.004,71.666,-13.436
-0.152,-0.341,0.922,89.797,71.903,-14.450
-0.155,-0.332,0.915,89.568,72.106,-15.334
-0.158,-0.323,0.908,89.290,72.274,-16.115
-0.162,-0.314,0.902,88.914,72.374,-16.817
-0.166,-0.304,0.896,88.320,72.340,-17.550
-0.170,-0.295,0.890,87.460,72.099,-18.217
-0.174,-0.285,0.883,86.314,71.663,-18.860
-0.179,-0.275,0.876,84.939,70.960,-19.489
-0.184,-0.266,0.870,83.420,70.082,-20.132
-0.190,-0.256,0.863,81.810,69.044,-20.757
-0.197,-0.247,0.857,79.710,67.896,-21.353
-0.203,-0.238,0.852,77.273,66.572,-21.891
-0.209,-0.229,0.847,74.599,65.055,-22.545
-0.215,-0.220,0.842,71.659,63.853,-23.437
-0.221,-0.212,0.838,68.637,62.623,-24.317
-0.227,-0.204,0.834,65.630,61.264,-25.086
-0.233,-0.198,0.831,62.747,59.819,-25.749
-0.239,-0.191,0.827,59.936,58.401,-26.179
-0.245,-0.184,0.823,57.120,57.078,-26.399
-0.251,-0.178,0.819,54.262,55.905,-26.385
-0.256,-0.172,0.815,51.475,54.896,-26.199
-0.262,-0.167,0.810,48.879,54.010,-25.857
-0.268,-0.163,0.806,46.583,53.195,-25.388
-0.274,-0.159,0.801,44.681,52.419,-24.825
-0.280,-0.155,0.798,43.118,51.662,-24.202
-0.286,-0.151,0.795,41.909,50.878,-23.523
-0.292,-0.147,0.792,41.000,50.055,-22.795
-0.298,-0.143,0.791,40.306,49.195,-22.040
-0.305,-0.138,0.790,39.693,48.306,-21.278
-0.311,-0.132,0.790,39.049,47.405,-20.514
-0.317,-0.126,0.789,38.280,46.494,-19.756
-0.324,-0.121,0.788,37.402,45.563,-19.010
-0.331,-0.115,0.786,36.422,44.572,-18.290
-0.338,-0.110,0.784,35.379,43.477,-17.622
-0.346,-0.105,0.782,34.271,42.283,-17.007
-0.353,-0.100,0.781,33.124,41.045,-16.443
-0.360,-0.095,0.780,31.975,39.792,-15.920
-0.367,-0.091,0.779,30.864,38.538,-15.431
-0.374,-0.087,0.779,29.825,37.298,-14.962
-0.380,-0.083,0.779,28.861,36.092,-14.499
-0.387,-0.080,0.780,27.957,34.943,-14.044
-0.393,-0.076,0.781,27.068,33.871,-13.592
-0.398,-0.072,0.781,26.194,32.871,-13.137
-0.404,-0.069,0.781,25.322,31.900,-12.690
-0.409,-0.065,0.781,24.464,30.946,-12.234
-0.415,-0.062,0.781,23.649,29.959,-11.795
-0.420,-0.058,0.780,22.851,28.990,-11.362
-0.426,-0.055,0.780,22.099,27.985,-10.938
-0.431,-0.052,0.781,21.407,26.974,-10.544
-0.436,-0.050,0.782,20.756,26.021,-10.147
-0.441,-0.047,0.783,20.120,25.112,-9.772
-0.446,-0.044,0.784,19.505,24.238,-9.409
-0.451,-0.042,0.785,18.888,23.413,-9.059
-0.455,-0.039,0.786,18.272,22.607,-8.724
-0.460,-0.036,0.787,17.655,21.822,-8.407
-0.464,-0.033,0.788,17.032,21.049,-8.084
-0.468,-0.031,0.788,16.434,20.253,-7.765
-0.473,-0.028,0.789,15.871,19.401,-7.449
-0.478,-0.026,0.789,15.356,18.511,-7.124
-0.482,-0.024,0.789,14.928,17.624,-6.792
-0.486,-0.023,0.790,14.587,16.781,-6.461
-0.490,-0.021,0.791,14.331,15.999,-6.128
-0.493,-0.020,0.792,14.163,15.286,-5.789
-0.497,-0.018,0.794,14.033,14.639,-5.466
-0.501,-0.016,0.796,13.917,14.053,-5.165
-0.504,-0.014,0.798,13.781,13.521,-4.892
-0.508,-0.012,0.799,13.625,13.006,-4.639
-0.511,-0.009,0.800,13.434,12.503,-4.404
-0.515,-0.007,0.801,13.211,12.010,-4.193
-0.518,-0.004,0.802,12.949,11.508,-3.993
-0.521,-0.002,0.803,12.672,11.008,-3.804
-0.524,-0.000,0.804,12.403,10.524,-3.627
-0.527,0.001,0.806,12.156,10.049,-3.470
-0.530,0.003,0.807,11.931,9.595,-3.331
-0.533,0.004,0.808,11.717,9.180,-3.206
-0.536,0.005,0.809,11.494,8.814,-3.092
-0.538,0.007,0.810,11.238,8.493,-2.996
-0.540,0.009,0.811,10.974,8.212,-2.909
-0.542,0.010,0.811,10.697,7.953,-2.835
-0.544,0.011,0.811,10.411,7.709,-2.763
-0.546,0.013,0.811,10.133,7.470,-2.691
-0.548,0.014,0.811,9.872,7.228,-2.617
-0.549,0.015,0.811,9.653,6.976,-2.544
-0.551,0.016,0.811,9.452,6.722,-2.468
-0.553,0.017,0.812,9.255,6.460,-2.385
-0.554,0.018,0.812,9.048,6.197,-2.296
-0.555,0.018,0.812,8.834,5.964,-2.204
-0.556,0.019,0.812,8.610,5.760,-2.109
-0.558,0.020,0.812,8.386,5.570,-2.014
-0.559,0.021,0.812,8.162,5.394,-1.928
-0.560,0.022,0.812,7.931,5.230,-1.844
-0.561,0.023,0.812,7.702,5.069,-1.760
-0.562,0.024,0.813,7.500,4.914,-1.674
-0.563,0.024,0.813,7.315,4.758,-1.585
-0.564,0.025,0.813,7.141,4.608,-1.497
-0.564,0.026,0.814,6.957,4.467,-1.413
-0.565,0.027,0.814,6.740,4.349,-1.331
-0.566,0.027,0.814,6.519,4.242,-1.258
-0.566,0.028,0.814,6.279,4.141,-1.190
-0.567,0.029,0.814,6.002,4.063,-1.121
-0.568,0.031,0.813,5.693,4.009,-1.047
-0.569,0.032,0.813,5.363,3.964,-0.965
-0.570,0.032,0.812,5.047,3.912,-0.884
-0.571,0.033,0.811,4.767,3.856,-0.802
-0.572,0.033,0.811,4.513,3.789,-0.721
-0.573,0.033,0.811,4.289,3.709,-0.640
-0.573,0.033,0.811,4.113,3.620,-0.571
-0.574,0.033,0.811,3.974,3.525,-0.509
-0.575,0.033,0.812,3.857,3.422,-0.445
-0.576,0.033,0.813,3.723,3.324,-0.383
-0.577,0.034,0.813,3.575,3.243,-0.321
-0.578,0.034,0.813,3.420,3.171,-0.257
-0.578,0.035,0.812,3.251,3.108,-0.194
-0.579,0.035,0.811,3.069,3.057,-0.138
-0.579,0.036,0.811,2.885,3.011,-0.079
-0.580,0.036,0.810,2.700,2.960,-0.017
-0.580,0.037,0.810,2.536,2.909,0.047
-0.580,0.037,0.809,2.388,2.857,0.111
-0.581,0.037,0.809,2.262,2.800,0.184
-0.582,0.037,0.809,2.168,2.736,0.256
-0.583,0.037,0.810,2.106,2.655,0.322
-0.584,0.038,0.810,2.049,2.552,0.387
-0.584,0.038,0.810,1.979,2.429,0.444
-0.585,0.038,0.811,1.894,2.286,0.499
-0.586,0.039,0.811,1.821,2.141,0.548
-0.586,0.039,0.811,1.745,2.010,0.593
-0.586,0.040,0.811,1.638,1.891,0.637

-0.329,-0.269,1.274,-1.811,-13.620,-7.807
-0.318,-0.279,1.299,-5.096,-26.561,-15.067
-0.305,-0.293,1.324,-7.906,-36.632,-21.693
-0.291,-0.311,1.348,-10.114,-43.379,-27.549
-0.276,-0.331,1.373,-11.608,-48.040,-32.470
-0.259,-0.351,1.400,-12.425,-50.889,-36.096
-0.242,-0.368,1.428,-12.761,-52.370,-38.782
-0.226,-0.384,1.459,-13.113,-52.778,-40.720
-0.211,-0.398,1.491,-13.695,-52.664,-42.107
-0.196,-0.413,1.521,-14.765,-52.140,-42.933
-0.180,-0.428,1.550,-16.848,-51.288,-43.355
-0.162,-0.445,1.576,-19.684,-50.159,-43.354
-0.143,-0.463,1.596,-22.852,-48.668,-42.955
-0.125,-0.482,1.612,-25.747,-47.006,-42.239
-0.106,-0.503,1.621,-27.570,-44.851,-41.231
-0.087,-0.525,1.626,-28.385,-41.343,-39.632
-0.069,-0.546,1.626,-28.250,-35.819,-37.458
-0.055,-0.566,1.625,-27.476,-30.347,-35.460
-0.044,-0.580,1.625,-26.545,-23.847,-32.029
-0.033,-0.597,1.621,-25.434,-14.112,-26.342
-0.024,-0.615,1.618,-22.804,-5.690,-21.275
-0.020,-0.627,1.616,-19.522,1.417,-17.124
-0.017,-0.630,1.612,-17.454,8.147,-12.773
-0.014,-0.633,1.606,-15.897,14.022,-9.024
-0.012,-0.635,1.598,-14.848,19.764,-5.139
-0.010,-0.636,1.587,-13.999,25.122,-1.139
-0.010,-0.637,1.575,-13.167,29.754,2.907
-0.010,-0.637,1.561,-12.250,33.774,6.980
-0.011,-0.637,1.547,-11.201,37.250,10.565
-0.011,-0.635,1.531,-10.179,40.451,13.949
-0.011,-0.635,1.514,-9.017,43.557,17.353
-0.012,-0.636,1.495,-7.260,46.727,20.745
-0.012,-0.638,1.476,-4.576,50.130,24.174
-0.012,-0.640,1.456,-0.318,53.422,27.051
-0.013,-0.639,1.437,4.556,56.576,29.435
-0.014,-0.636,1.418,9.627,59.833,31.541
-0.017,-0.632,1.398,14.911,63.128,33.327
-0.024,-0.628,1.378,20.545,66.104,34.761
-0.028,-0.623,1.359,26.451,68.805,35.915
-0.032,-0.617,1.340,32.449,71.239,36.774
-0.036,-0.610,1.322,38.214,73.422,37.302
-0.040,-0.601,1.305,43.439,75.327,37.625
-0.046,-0.592,1.289,48.031,76.908,37.774
-0.051,-0.583,1.273,51.994,78.242,37.757
-0.057,-0.573,1.256,55.437,79.356,37.583
-0.063,-0.563,1.240,58.331,80.156,37.280
-0.069,-0.553,1.223,60.675,80.703,36.871
-0.076,-0.542,1.206,62.494,81.033,36.382
-0.082,-0.531,1.189,63.758,81.171,35.785
-0.089,-0.520,1.172,64.652,81.112,35.117
-0.096,-0.509,1.155,65.265,80.898,34.387
-0.103,-0.499,1.139,65.685,80.517,33.615
-0.109,-0.489,1.123,66.028,80.051,32.814
-0.115,-0.480,1.108,66.409,79.521,31.980
-0.121,-0.471,1.095,66.818,78.942,31.090
-0.126,-0.462,1.082,67.245,78.322,30.141
-0.131,-0.454,1.070,67.603,77.647,29.156
-0.137,-0.447,1.059,67.789,76.893,28.171
-0.142,-0.439,1.047,67.793,76.088,27.198
-0.146,-0.431,1.035,67.642,75.254,26.259
-0.150,-0.423,1.023,67.384,74.399,25.356
-0.154,-0.416,1.011,67.055,73.544,24.512
-0.158,-0.409,0.999,66.723,72.703,23.729
-0.161,-0.401,0.987,66.392,71.865,22.992
-0.164,-0.393,0.976,66.021,71.043,22.257
-0.168,-0.385,0.966,65.597,70.238,21.535
-0.171,-0.378,0.956,65.137,69.462,20.817
-0.174,-0.370,0.946,64.685,68.717,20.134
-0.178,-0.363,0.936,64.284,67.993,19.478
-0.182,-0.357,0.927,63.962,67.280,18.816
-0.186,-0.350,0.918,63.748,66.562,18.110
-0.191,-0.343,0.909,63.555,65.810,17.382
-0.196,-0.336,0.901,63.319,65.038,16.654
-0.200,-0.328,0.894,63.020,64.242,15.882
-0.204,-0.320,0.886,62.589,63.346,15.055
-0.209,-0.313,0.878,62.040,62.383,14.146
-0.215,-0.305,0.871,61.394,61.397,13.156
-0.219,-0.297,0.864,60.671,60.387,12.107
-0.224,-0.290,0.857,59.919,59.326,11.012
-0.229,-0.282,0.851,59.131,58.182,9.902
-0.234,-0.273,0.845,58.279,57.030,8.822
-0.239,-0.265,0.839,57.382,55.876,7.765
-0.244,-0.257,0.833,56.434,54.689,6.758
-0.249,-0.248,0.827,55.357,53.546,5.912
-0.255,-0.240,0.821,54.219,52.433,5.241
-0.260,-0.232,0.816,53.030,51.352,4.694
-0.266,-0.225,0.811,51.799,50.334,4.308
-0.271,-0.218,0.807,50.521,49.359,4.058
-0.276,-0.211,0.802,49.196,48.424,3.939
-0.282,-0.205,0.798,47.848,47.529,3.926
-0.288,-0.199,0.795,46.540,46.658,3.980
-0.294,-0.193,0.792,45.327,45.804,4.070
-0.299,-0.188,0.789,44.309,44.973,4.210
-0.305,-0.183,0.787,43.418,44.181,4.364
-0.311,-0.177,0.784,42.591,43.411,4.519
-0.317,-0.171,0.782,41.782,42.629,4.654
-0.323,-0.166,0.781,40.999,41.817,4.773
-0.329,-0.160,0.779,40.204,40.971,4.863
