aX,aY,aZ,gX,gY,gZ
0.810,-0.215,0.887,-22.506,-11.595,59.186
0.812,-0.218,0.889,-22.233,-7.290,58.501
0.811,-0.221,0.892,-21.973,-3.135,57.864
0.810,-0.222,0.895,-21.762,0.927,57.294
0.810,-0.223,0.902,-21.630,4.831,56.810
0.808,-0.224,0.905,-21.579,8.466,56.405
0.807,-0.225,0.907,-21.516,11.891,56.021
0.805,-0.226,0.909,-21.457,15.256,55.685
0.804,-0.226,0.911,-21.377,18.646,55.402
0.802,-0.227,0.912,-21.134,23.024,54.763
0.801,-0.228,0.916,-20.921,26.933,54.144
0.799,-0.230,0.920,-20.748,30.799,53.687
0.796,-0.233,0.924,-20.673,34.396,53.326
0.794,-0.237,0.929,-20.724,37.876,52.924
0.793,-0.240,0.933,-20.893,41.299,52.649
0.792,-0.245,0.937,-20.996,44.729,52.555
0.791,-0.251,0.939,-20.909,48.251,52.575
0.789,-0.257,0.942,-20.671,51.904,52.675
0.787,-0.263,0.945,-20.281,55.713,52.890
0.783,-0.269,0.948,-19.709,59.541,53.244
0.779,-0.276,0.950,-19.056,63.331,53.777
0.775,-0.281,0.954,-18.373,67.021,54.541
0.769,-0.285,0.956,-17.688,70.710,55.452
0.762,-0.289,0.957,-17.029,74.358,56.372
0.754,-0.292,0.958,-16.397,77.865,57.183
0.747,-0.295,0.959,-15.802,81.334,57.736
0.739,-0.299,0.959,-15.242,85.009,58.239
0.731,-0.304,0.960,-14.695,88.808,58.771
0.722,-0.309,0.961,-14.112,92.638,59.323
0.712,-0.315,0.963,-13.469,96.240,59.832
0.700,-0.320,0.965,-12.863,99.543,60.414
0.688,-0.323,0.966,-12.260,102.509,61.011
0.670,-0.326,0.967,-11.702,105.047,61.647
0.656,-0.328,0.967,-11.229,107.256,62.243
0.642,-0.330,0.966,-10.836,109.276,62.839
0.627,-0.331,0.964,-10.489,111.120,63.428
0.613,-0.334,0.962,-10.123,112.731,63.922
0.599,-0.338,0.960,-9.706,114.393,64.360
0.585,-0.342,0.958,-9.221,116.229,64.770
0.570,-0.345,0.957,-8.687,118.078,65.189
0.556,-0.348,0.955,-8.172,119.908,65.598
0.541,-0.350,0.952,-7.618,121.782,66.016
0.525,-0.351,0.948,-6.947,123.592,66.397
0.508,-0.351,0.944,-6.277,125.148,66.794
0.490,-0.350,0.939,-5.634,126.271,67.129
0.471,-0.349,0.934,-5.026,127.031,67.355
0.452,-0.348,0.929,-4.487,127.414,67.476
0.434,-0.347,0.923,-4.029,127.489,67.492
0.416,-0.345,0.916,-3.632,127.375,67.397
0.398,-0.344,0.909,-3.248,127.089,67.170
0.380,-0.342,0.900,-2.874,126.689,66.821
0.362,-0.339,0.893,-2.424,126.146,66.344
0.345,-0.338,0.885,-1.993,125.495,65.803
0.327,-0.335,0.878,-1.544,124.772,65.187
0.310,-0.332,0.869,-1.085,124.041,64.555
0.293,-0.329,0.861,-0.571,123.245,63.870
0.275,-0.326,0.854,-0.112,122.335,63.153
0.257,-0.323,0.846,0.310,121.301,62.409
0.239,-0.320,0.838,0.752,120.144,61.608
0.221,-0.316,0.831,1.217,118.828,60.783
0.203,-0.313,0.824,1.615,117.295,59.910
0.185,-0.310,0.817,1.980,115.606,58.993
0.168,-0.309,0.810,2.371,113.836,58.008
0.151,-0.308,0.804,2.765,112.009,56.990
0.135,-0.307,0.798,3.089,110.098,55.953
0.119,-0.306,0.793,3.390,108.192,54.917
0.103,-0.305,0.789,3.636,106.315,53.898
0.088,-0.304,0.786,3.794,104.498,52.937
0.072,-0.303,0.782,3.924,102.747,52.004
0.057,-0.303,0.779,4.041,101.017,51.102
0.042,-0.302,0.776,4.176,99.337,50.248
0.027,-0.302,0.772,4.343,97.721,49.437
0.012,-0.300,0.767,4.529,96.171,48.691
-0.003,-0.298,0.762,4.737,94.664,47.976
-0.019,-0.295,0.756,4.949,93.179,47.274
-0.034,-0.292,0.751,5.218,91.695,46.571
-0.050,-0.289,0.747,5.537,90.201,45.844
-0.066,-0.286,0.744,5.809,88.724,45.118
-0.081,-0.283,0.742,6.004,87.223,44.413
-0.096,-0.279,0.741,6.093,85.728,43.689
-0.110,-0.275,0.738,6.097,84.271,42.972
-0.125,-0.271,0.736,6.067,82.860,42.247
-0.139,-0.267,0.734,5.985,81.521,41.558
-0.153,-0.263,0.732,5.890,80.272,40.890
-0.166,-0.259,0.730,5.778,79.094,40.242
-0.180,-0.256,0.729,5.706,77.958,39.602
-0.194,-0.254,0.729,5.698,76.852,38.973
-0.208,-0.251,0.728,5.726,75.735,38.343
-0.222,-0.249,0.728,5.770,74.591,37.705
-0.235,-0.246,0.728,5.827,73.371,37.047
-0.249,-0.243,0.729,5.863,72.095,36.358
-0.262,-0.240,0.728,5.858,70.775,35.631
-0.275,-0.237,0.728,5.811,69.434,34.768
-0.287,-0.234,0.727,5.735,68.088,33.834
-0.299,-0.231,0.726,5.619,66.750,32.843
-0.310,-0.228,0.724,5.430,65.443,31.866
-0.321,-0.225,0.722,5.211,64.182,30.903
-0.331,-0.222,0.721,5.011,62.960,29.957
-0.341,-0.220,0.720,4.838,61.767,29.065
-0.351,-0.218,0.719,4.769,60.610,28.246
-0.360,-0.216,0.718,4.774,59.483,27.478
-0.370,-0.215,0.718,4.841,58.375,26.739
-0.379,-0.213,0.718,4.932,57.250,26.026
-0.388,-0.212,0.718,5.035,56.032,25.317
-0.398,-0.212,0.718,5.141,54.694,24.596
-0.407,-0.211,0.717,5.252,53.294,23.834
-0.415,-0.210,0.716,5.342,51.867,23.055
-0.423,-0.209,0.715,5.356,50.401,22.291
-0.430,-0.207,0.714,5.284,48.922,21.557
-0.437,-0.205,0.712,5.156,47.505,20.859
-0.444,-0.204,0.711,5.000,46.168,20.199
-0.450,-0.202,0.710,4.886,44.918,19.622
-0.456,-0.201,0.710,4.825,43.734,19.114
-0.462,-0.201,0.710,4.801,42.587,18.649
-0.468,-0.201,0.711,4.829,41.457,18.202
-0.474,-0.201,0.712,4.905,40.327,17.795
-0.480,-0.201,0.713,5.001,39.220,17.429
-0.486,-0.201,0.714,5.078,38.144,17.081
-0.491,-0.201,0.715,5.094,37.087,16.731

0.616,-0.119,1.220,5.830,35.482,9.138
0.610,-0.147,1.226,-1.086,35.636,5.659
0.599,-0.161,1.226,-24.379,38.327,5.499
0.589,-0.165,1.218,-52.021,44.543,6.415
0.582,-0.165,1.208,-73.348,52.731,8.467
0.571,-0.163,1.197,-84.078,60.332,11.502
0.553,-0.156,1.184,-85.870,64.703,15.635
0.532,-0.144,1.167,-83.640,66.356,20.262
0.509,-0.131,1.148,-76.833,66.083,25.058
0.484,-0.116,1.131,-60.497,64.831,29.564
0.458,-0.107,1.116,-37.850,61.794,33.113
0.431,-0.100,1.102,-13.387,56.440,35.630
0.406,-0.093,1.092,7.751,48.933,37.072
0.384,-0.088,1.085,22.733,39.885,37.523
0.363,-0.081,1.079,30.918,31.204,37.188
0.344,-0.071,1.073,33.830,24.112,36.349
0.328,-0.060,1.069,33.889,19.251,34.810
0.313,-0.049,1.065,31.855,16.522,32.505
0.300,-0.039,1.062,27.642,15.367,29.835
0.287,-0.030,1.062,21.506,15.057,26.982
0.273,-0.026,1.063,14.491,15.091,24.126
0.257,-0.024,1.065,7.906,15.227,21.439
0.242,-0.024,1.065,2.558,15.276,19.101
0.226,-0.024,1.064,-1.407,15.171,17.199
0.211,-0.023,1.063,-3.673,14.853,15.929
0.197,-0.022,1.061,-4.852,14.287,15.140
0.183,-0.022,1.057,-5.175,13.435,14.768
0.170,-0.022,1.054,-4.932,12.495,14.686
0.157,-0.021,1.051,-4.247,11.540,14.850
0.144,-0.020,1.049,-3.181,10.597,15.260
0.132,-0.019,1.047,-1.736,9.714,15.739
0.119,-0.018,1.045,-0.030,8.995,16.232
0.107,-0.016,1.044,1.713,8.441,16.685
0.096,-0.013,1.044,3.264,8.077,17.071
0.084,-0.009,1.045,4.518,7.796,17.349
0.073,-0.006,1.045,5.391,7.541,17.500
0.061,-0.002,1.046,5.873,7.279,17.467
0.051,0.002,1.046,5.966,7.015,17.324
0.041,0.006,1.047,5.870,6.756,17.077
0.031,0.010,1.047,5.651,6.506,16.730
0.021,0.013,1.047,5.409,6.247,16.324
0.012,0.016,1.046,5.236,5.957,15.907
0.003,0.019,1.045,5.146,5.682,15.495
-0.007,0.022,1.044,5.121,5.451,15.125
-0.016,0.026,1.042,5.154,5.268,14.822
-0.024,0.029,1.041,5.189,5.149,14.571
-0.033,0.032,1.040,5.192,5.085,14.367
-0.041,0.034,1.039,5.188,5.041,14.192
-0.049,0.035,1.038,5.192,4.987,14.027
-0.057,0.035,1.037,5.186,4.904,13.879
-0.065,0.036,1.037,5.173,4.809,13.748
-0.072,0.037,1.032,5.156,4.724,13.635
-0.078,0.038,1.030,5.140,4.668,13.541
-0.084,0.039,1.029,5.136,4.669,13.465
-0.090,0.039,1.027,5.129,4.731,13.423
-0.095,0.040,1.026,5.110,4.846,13.416
-0.101,0.041,1.025,5.061,4.991,13.451
-0.106,0.042,1.024,4.960,5.157,13.513
-0.111,0.042,1.023,4.792,5.325,13.602
-0.116,0.043,1.022,4.538,5.479,13.700
-0.121,0.043,1.022,4.199,5.618,13.814
-0.125,0.042,1.022,3.777,5.730,13.938
-0.129,0.042,1.022,3.301,5.827,14.081
-0.133,0.042,1.022,2.815,5.937,14.247
-0.136,0.041,1.022,2.246,6.053,14.477
-0.139,0.040,1.022,1.623,6.175,14.760
-0.142,0.039,1.023,0.954,6.306,15.093
-0.145,0.038,1.023,0.242,6.461,15.491
-0.147,0.038,1.022,-0.504,6.687,15.952
-0.148,0.038,1.021,-1.269,7.058,16.502
-0.150,0.037,1.021,-2.040,7.529,17.137
-0.152,0.037,1.021,-2.830,8.055,17.869
-0.153,0.037,1.022,-3.706,8.628,18.723
-0.155,0.036,1.023,-4.636,9.233,19.652
-0.156,0.036,1.024,-5.677,9.838,20.666
-0.157,0.035,1.025,-6.903,10.302,21.758
-0.158,0.035,1.026,-8.254,10.721,22.890
-0.158,0.035,1.026,-9.649,11.180,24.055
-0.157,0.035,1.025,-11.061,11.736,25.272
-0.156,0.035,1.024,-12.473,12.442,26.502
-0.154,0.035,1.022,-13.927,13.402,27.769
-0.152,0.035,1.025,-15.452,14.758,29.087
-0.150,0.035,1.025,-17.047,16.297,30.438
-0.149,0.034,1.027,-18.801,17.816,31.812
-0.147,0.033,1.029,-20.765,19.272,33.186
-0.145,0.031,1.031,-22.956,20.701,34.600
-0.143,0.029,1.035,-25.550,21.749,36.075
-0.142,0.027,1.037,-28.750,22.360,37.556
-0.139,0.025,1.035,-32.040,22.967,39.006
-0.135,0.022,1.031,-35.220,23.755,40.421
-0.131,0.019,1.026,-38.131,24.798,41.818
-0.126,0.016,1.019,-40.325,26.219,43.304
-0.122,0.012,1.012,-41.772,28.114,44.827
-0.120,0.009,1.009,-42.700,30.271,46.385
-0.118,0.005,1.007,-43.347,32.481,47.985
-0.119,0.002,1.008,-43.913,34.595,49.556
-0.120,-0.002,1.010,-44.512,36.514,51.088
-0.122,-0.005,1.014,-45.215,38.197,52.539
-0.123,-0.009,1.018,-46.080,39.584,53.889
-0.125,-0.012,1.022,-47.157,40.637,55.160
-0.127,-0.014,1.022,-48.465,41.181,56.316
-0.129,-0.015,1.016,-49.828,41.692,57.377
-0.131,-0.017,1.006,-50.919,42.308,58.299
-0.136,-0.019,0.995,-51.328,43.140,58.855
-0.142,-0.022,0.984,-51.352,44.243,59.280
-0.148,-0.025,0.974,-51.014,45.773,59.533
-0.157,-0.028,0.969,-50.451,47.373,59.656
-0.167,-0.030,0.966,-49.839,48.837,59.727
-0.178,-0.030,0.964,-49.219,50.077,59.750
-0.189,-0.029,0.962,-48.678,51.062,59.725
-0.200,-0.028,0.961,-48.242,51.800,59.655
-0.210,-0.026,0.958,-47.870,52.440,59.481
-0.220,-0.025,0.957,-47.493,52.899,59.139
-0.232,-0.024,0.955,-47.389,52.962,58.562
-0.245,-0.023,0.950,-47.475,52.902,57.935
-0.257,-0.023,0.943,-47.710,52.701,57.223
-0.270,-0.024,0.930,-48.011,52.500,56.458
-0.283,-0.027,0.915,-48.119,52.495,55.670
-0.294,-0.030,0.900,-47.967,52.635,54.905

0.647,0.041,1.224,-34.865,44.061,33.797
0.660,0.007,1.232,-33.497,39.640,19.373
0.658,-0.029,1.241,-40.621,38.610,11.695
0.648,-0.055,1.239,-63.971,38.954,9.349
0.637,-0.069,1.232,-95.138,41.476,9.273
0.629,-0.081,1.224,-121.313,45.910,10.355
0.619,-0.091,1.215,-132.934,50.926,13.219
0.604,-0.095,1.204,-134.017,55.047,16.697
0.584,-0.089,1.191,-130.497,57.660,20.532
0.562,-0.079,1.172,-123.927,58.261,24.629
0.535,-0.066,1.155,-109.288,57.689,28.720
0.506,-0.055,1.140,-87.538,56.217,32.124
0.478,-0.046,1.127,-61.661,53.062,34.670
0.451,-0.040,1.115,-35.493,48.090,36.281
0.426,-0.037,1.106,-13.538,41.734,37.212
0.403,-0.032,1.100,1.863,34.659,37.476
0.381,-0.026,1.095,10.362,27.883,37.168
0.362,-0.017,1.090,13.803,22.523,36.453
0.346,-0.008,1.085,14.421,19.039,35.151
0.332,0.000,1.081,13.603,17.184,33.326
0.318,0.007,1.080,10.911,16.445,31.110
0.304,0.012,1.080,6.373,16.271,28.642
0.289,0.014,1.080,0.367,16.316,26.079
0.273,0.014,1.081,-5.476,16.414,23.712
0.257,0.013,1.082,-10.300,16.425,21.635
0.240,0.013,1.081,-13.777,16.292,19.868
0.224,0.012,1.079,-15.945,15.905,18.472
0.208,0.012,1.077,-17.002,15.293,17.471
0.193,0.011,1.074,-17.207,14.488,16.827
0.178,0.011,1.071,-16.874,13.592,16.461
0.164,0.010,1.067,-16.043,12.705,16.329
0.150,0.010,1.064,-14.824,11.844,16.316
0.136,0.010,1.063,-13.302,11.041,16.388
0.123,0.009,1.061,-11.600,10.336,16.518
0.109,0.009,1.061,-9.853,9.743,16.644
0.097,0.009,1.061,-8.225,9.222,16.738
0.084,0.010,1.061,-6.813,8.784,16.785
0.072,0.010,1.062,-5.659,8.430,16.764
0.061,0.011,1.062,-4.882,8.148,16.663
0.050,0.012,1.062,-4.377,7.922,16.509
0.039,0.013,1.062,-4.070,7.740,16.289
0.029,0.014,1.061,-3.900,7.607,16.024
0.019,0.015,1.061,-3.821,7.529,15.731
0.009,0.015,1.061,-3.795,7.462,15.410
-0.001,0.016,1.060,-3.779,7.402,15.090
-0.011,0.016,1.059,-3.738,7.349,14.794
-0.021,0.017,1.058,-3.662,7.307,14.546
-0.030,0.017,1.056,-3.563,7.266,14.345
-0.040,0.017,1.055,-3.461,7.206,14.173
-0.049,0.016,1.054,-3.343,7.144,14.017
-0.057,0.016,1.052,-3.174,7.126,13.887
-0.064,0.015,1.050,-2.964,7.152,13.806
-0.072,0.015,1.049,-2.725,7.211,13.748
-0.079,0.015,1.048,-2.481,7.283,13.714
-0.086,0.015,1.046,-2.214,7.369,13.692
-0.093,0.016,1.044,-1.936,7.482,13.680
-0.099,0.016,1.041,-1.662,7.608,13.685
-0.106,0.017,1.039,-1.432,7.724,13.701
-0.112,0.017,1.037,-1.290,7.809,13.711
-0.118,0.017,1.035,-1.189,7.853,13.702
-0.124,0.018,1.033,-1.122,7.867,13.673
-0.129,0.018,1.031,-1.078,7.846,13.627
-0.135,0.018,1.029,-1.028,7.815,13.574
-0.139,0.018,1.027,-0.956,7.768,13.516
-0.144,0.018,1.025,-0.831,7.742,13.455
-0.148,0.019,1.023,-0.654,7.737,13.401
-0.152,0.019,1.022,-0.472,7.761,13.380
-0.156,0.020,1.021,-0.339,7.815,13.393
-0.159,0.021,1.020,-0.303,7.911,13.457
-0.162,0.022,1.019,-0.437,8.041,13.562
-0.165,0.023,1.019,-0.763,8.204,13.689
-0.168,0.024,1.018,-1.258,8.400,13.833
-0.171,0.024,1.016,-1.912,8.630,13.983
-0.174,0.025,1.015,-2.634,8.875,14.141
-0.176,0.025,1.014,-3.353,9.123,14.310
-0.180,0.025,1.013,-3.949,9.356,14.495
-0.183,0.025,1.012,-4.359,9.572,14.708
-0.186,0.025,1.010,-4.562,9.787,14.944
-0.190,0.025,1.009,-4.587,10.001,15.217
-0.193,0.025,1.008,-4.551,10.204,15.534
-0.196,0.025,1.008,-4.514,10.399,15.906
-0.199,0.025,1.007,-4.515,10.605,16.325
-0.201,0.025,1.005,-4.589,10.855,16.778
-0.203,0.026,1.004,-4.731,11.142,17.277
-0.206,0.026,1.002,-4.917,11.441,17.818
-0.210,0.026,1.000,-5.134,11.736,18.363
-0.213,0.027,0.999,-5.333,12.003,18.921
-0.217,0.027,0.998,-5.482,12.223,19.468
-0.221,0.027,0.997,-5.534,12.423,19.990
-0.224,0.026,0.996,-5.416,12.630,20.504
-0.228,0.026,0.995,-5.158,12.836,21.007
-0.231,0.026,0.995,-4.831,13.029,21.528
-0.235,0.026,0.995,-4.530,13.199,22.060
-0.238,0.027,0.994,-4.286,13.379,22.602
-0.242,0.029,0.993,-4.142,13.606,23.174
-0.245,0.031,0.991,-4.144,13.912,23.770
-0.248,0.033,0.989,-4.269,14.266,24.354
-0.252,0.035,0.987,-4.473,14.633,24.901
-0.256,0.036,0.987,-4.755,14.966,25.368
-0.259,0.037,0.986,-5.049,15.245,25.744
-0.262,0.037,0.986,-5.355,15.449,26.038
-0.265,0.036,0.987,-5.673,15.586,26.278
-0.267,0.036,0.987,-6.065,15.634,26.471
-0.268,0.035,0.986,-6.574,15.681,26.631
-0.267,0.034,0.985,-7.238,15.776,26.785
-0.267,0.033,0.982,-8.092,15.964,26.993
-0.267,0.034,0.980,-9.137,16.270,27.260
-0.267,0.034,0.977,-10.247,16.695,27.579
-0.267,0.035,0.975,-11.406,17.213,27.956
-0.268,0.035,0.973,-12.577,17.790,28.386
-0.269,0.036,0.972,-13.642,18.372,28.836
-0.270,0.036,0.970,-14.524,18.938,29.295
-0.271,0.035,0.970,-15.228,19.485,29.732
-0.271,0.034,0.969,-15.870,19.959,30.170
-0.272,0.033,0.967,-16.503,20.344,30.577
-0.274,0.032,0.965,-17.145,20.732,30.911
-0.274,0.030,0.963,-17.826,21.146,31.215
-0.274,0.028,0.961,-18.545,21.593,31.486
-0.275,0.025,0.962,-19.356,22.035,31.710

0.572,-0.114,1.252,-0.786,20.995,22.004
0.576,-0.140,1.254,-0.373,21.082,17.430
0.570,-0.160,1.256,-9.611,22.240,16.067
0.556,-0.167,1.255,-33.545,24.870,16.318
0.542,-0.169,1.249,-63.826,29.067,17.740
0.531,-0.171,1.241,-88.607,33.236,20.130
0.519,-0.175,1.229,-100.654,36.572,24.851
0.504,-0.172,1.213,-99.713,39.335,28.465
0.485,-0.160,1.195,-95.948,41.146,31.544
0.464,-0.145,1.177,-84.345,41.953,34.206
0.438,-0.132,1.160,-64.683,41.600,36.289
0.411,-0.124,1.148,-39.319,40.424,37.675
0.385,-0.121,1.137,-11.355,37.636,38.681
0.359,-0.120,1.129,14.045,32.980,39.282
0.335,-0.116,1.121,32.273,26.807,39.449
0.311,-0.107,1.116,41.807,19.853,39.214
0.290,-0.094,1.112,44.675,14.893,38.658
0.274,-0.080,1.106,44.354,10.426,37.775
0.261,-0.068,1.100,42.690,7.942,36.496
0.251,-0.056,1.093,38.980,7.038,34.848
0.241,-0.046,1.090,33.154,7.029,32.726
0.231,-0.041,1.087,25.604,7.436,30.452
0.220,-0.037,1.085,18.209,8.034,28.174
0.207,-0.036,1.083,11.799,8.563,25.996
0.193,-0.034,1.081,6.723,8.743,23.997
0.178,-0.034,1.079,3.010,8.630,22.271
0.163,-0.033,1.076,0.496,8.166,20.871
0.149,-0.033,1.073,-1.026,7.377,19.809
0.134,-0.032,1.069,-1.563,6.389,19.134
0.121,-0.032,1.066,-1.604,5.333,18.696
0.108,-0.031,1.063,-1.284,4.323,18.434
0.096,-0.031,1.060,-0.626,3.499,18.292
0.084,-0.030,1.059,0.293,2.874,18.275
0.074,-0.029,1.057,1.373,2.441,18.325
0.063,-0.027,1.057,2.397,2.174,18.397
0.053,-0.025,1.056,3.264,2.025,18.458
0.043,-0.023,1.057,3.924,1.981,18.506
0.033,-0.021,1.057,4.342,1.983,18.517
0.023,-0.019,1.057,4.539,1.990,18.471
0.013,-0.017,1.058,4.572,1.979,18.356
0.004,-0.015,1.058,4.490,1.941,18.177
-0.005,-0.013,1.057,4.348,1.893,17.957
-0.015,-0.010,1.057,4.150,1.835,17.714
-0.024,-0.008,1.056,3.942,1.780,17.449
-0.032,-0.006,1.055,3.809,1.791,17.170
-0.041,-0.004,1.053,3.750,1.859,16.904
-0.050,-0.001,1.052,3.751,1.962,16.667
-0.058,0.001,1.051,3.828,2.068,16.438
-0.067,0.002,1.050,3.955,2.135,16.205
-0.075,0.003,1.049,4.139,2.167,15.972
-0.082,0.004,1.047,4.372,2.190,15.739
-0.088,0.005,1.046,4.620,2.216,15.506
-0.094,0.006,1.044,4.841,2.237,15.278
-0.100,0.007,1.043,5.009,2.253,15.043
-0.106,0.008,1.043,5.109,2.224,14.810
-0.112,0.009,1.041,5.175,2.169,14.582
-0.117,0.010,1.040,5.194,2.117,14.358
-0.122,0.011,1.038,5.159,2.100,14.144
-0.127,0.011,1.037,5.110,2.130,13.942
-0.132,0.012,1.035,5.075,2.208,13.774
-0.136,0.013,1.033,5.044,2.312,13.633
-0.141,0.013,1.032,5.006,2.413,13.523
-0.145,0.014,1.030,5.012,2.521,13.415
-0.149,0.014,1.028,5.058,2.639,13.309
-0.154,0.015,1.026,5.141,2.765,13.213
-0.158,0.016,1.024,5.235,2.882,13.114
-0.162,0.017,1.022,5.335,2.971,13.002
-0.167,0.018,1.020,5.455,3.024,12.873
-0.172,0.019,1.018,5.583,3.042,12.726
-0.176,0.020,1.017,5.714,3.041,12.553
-0.180,0.021,1.015,5.839,3.042,12.362
-0.184,0.022,1.013,5.940,3.045,12.157
-0.188,0.024,1.011,6.033,3.052,11.953
-0.192,0.025,1.010,6.141,3.083,11.745
-0.196,0.026,1.008,6.281,3.151,11.534
-0.199,0.027,1.007,6.435,3.228,11.335
-0.203,0.028,1.006,6.586,3.298,11.151
-0.206,0.029,1.005,6.715,3.336,10.975
-0.210,0.030,1.004,6.816,3.352,10.807
-0.213,0.031,1.003,6.885,3.355,10.651
-0.216,0.032,1.002,6.909,3.349,10.502
-0.219,0.033,1.001,6.878,3.337,10.369
-0.221,0.034,1.000,6.828,3.339,10.242
-0.224,0.035,0.999,6.771,3.374,10.131
-0.226,0.036,0.997,6.692,3.455,10.044
-0.228,0.038,0.996,6.570,3.569,9.983
-0.230,0.039,0.995,6.422,3.700,9.958
-0.232,0.040,0.994,6.298,3.851,9.943
-0.234,0.041,0.993,6.205,4.010,9.943
-0.237,0.041,0.992,6.153,4.168,9.952
-0.239,0.042,0.992,6.135,4.303,9.968
-0.242,0.043,0.991,6.136,4.401,9.980
-0.245,0.043,0.990,6.133,4.448,9.977
-0.247,0.044,0.990,6.081,4.451,9.957
-0.249,0.044,0.989,5.938,4.426,9.924
-0.251,0.045,0.989,5.703,4.399,9.870
-0.253,0.045,0.988,5.377,4.409,9.790
-0.254,0.045,0.988,4.927,4.510,9.709
-0.254,0.046,0.988,4.284,4.675,9.655
-0.255,0.046,0.989,3.408,4.894,9.629
-0.256,0.046,0.989,2.249,5.163,9.652
-0.256,0.045,0.990,0.940,5.467,9.711
-0.257,0.044,0.991,-0.438,5.798,9.819
-0.257,0.043,0.992,-1.781,6.147,10.012
-0.257,0.041,0.992,-3.023,6.530,10.301
-0.257,0.040,0.992,-4.182,6.932,10.700
-0.258,0.040,0.993,-5.266,7.353,11.223
-0.257,0.039,0.992,-6.253,7.814,11.917
-0.257,0.039,0.993,-7.229,8.334,12.715
-0.256,0.038,0.993,-8.334,8.896,13.599
-0.253,0.036,0.995,-9.683,9.551,14.571
-0.250,0.034,0.996,-11.395,10.311,15.623
-0.245,0.032,0.996,-13.544,11.165,16.780
-0.240,0.030,0.997,-16.396,12.087,18.024
-0.235,0.029,0.997,-19.574,13.119,19.373
-0.229,0.027,0.996,-22.686,14.303,20.815
-0.224,0.025,0.995,-25.413,15.596,22.418
-0.220,0.022,0.995,-27.700,16.915,24.130
-0.216,0.020,0.996,-29.551,18.204,25.922

0.611,0.067,1.245,-6.232,9.767,8.028
0.625,0.046,1.249,3.400,6.195,-4.768
0.632,0.015,1.254,3.755,5.216,-12.601
0.629,-0.012,1.258,-9.252,5.659,-15.415
0.618,-0.029,1.256,-36.011,7.904,-15.607
0.604,-0.039,1.249,-65.822,13.077,-14.706
0.591,-0.047,1.240,-89.019,19.611,-12.637
0.575,-0.053,1.230,-101.341,25.664,-9.643
0.557,-0.053,1.218,-101.552,30.176,-6.002
0.535,-0.048,1.201,-98.908,32.984,-2.169
0.508,-0.041,1.182,-89.438,33.816,1.907
0.481,-0.033,1.166,-71.813,33.519,5.737
0.454,-0.027,1.151,-48.567,32.066,8.838
0.428,-0.023,1.139,-23.370,28.930,11.049
0.401,-0.021,1.130,-1.669,24.139,12.592
0.376,-0.019,1.123,14.143,18.317,13.480
0.353,-0.014,1.117,23.024,12.514,13.801
0.334,-0.007,1.111,26.334,7.966,13.674
0.317,0.001,1.104,26.518,5.138,13.106
0.303,0.008,1.098,25.105,3.937,12.143
0.291,0.014,1.094,19.804,3.803,10.772
0.279,0.015,1.092,12.857,4.177,9.014
0.265,0.015,1.091,5.103,4.888,7.256
0.251,0.013,1.090,-1.989,5.665,5.690
0.236,0.011,1.088,-7.593,6.298,4.451
0.220,0.010,1.086,-11.554,6.589,3.511
0.203,0.009,1.083,-13.974,6.632,2.887
0.188,0.008,1.079,-15.128,6.396,2.586
0.172,0.007,1.075,-15.380,5.896,2.568
0.157,0.005,1.070,-14.966,5.248,2.822
0.143,0.004,1.065,-14.104,4.569,3.256
0.130,0.003,1.060,-12.778,3.953,3.796
0.118,0.001,1.056,-11.122,3.498,4.425
0.106,0.000,1.053,-9.378,3.182,5.094
0.094,0.001,1.051,-7.694,2.974,5.748
0.082,0.002,1.050,-6.220,2.816,6.338
0.071,0.003,1.049,-5.031,2.690,6.805
0.060,0.005,1.049,-4.223,2.578,7.177
0.048,0.008,1.049,-3.667,2.466,7.441
0.037,0.010,1.048,-3.298,2.355,7.604
0.026,0.012,1.047,-3.079,2.227,7.685
0.016,0.014,1.046,-2.952,2.121,7.685
0.006,0.016,1.045,-2.891,2.055,7.626
-0.004,0.018,1.044,-2.910,2.006,7.518
-0.014,0.020,1.043,-3.005,1.957,7.350
-0.023,0.021,1.042,-3.132,1.859,7.146
-0.033,0.022,1.040,-3.300,1.686,6.915
-0.042,0.023,1.037,-3.470,1.534,6.668
-0.050,0.024,1.035,-3.637,1.422,6.421
-0.059,0.025,1.034,-3.754,1.347,6.178
-0.067,0.025,1.032,-3.798,1.283,5.962
-0.075,0.024,1.032,-3.745,1.204,5.768
-0.083,0.024,1.031,-3.608,1.116,5.608
-0.091,0.023,1.030,-3.409,1.004,5.518
-0.097,0.023,1.028,-3.120,0.892,5.482
-0.103,0.022,1.026,-2.767,0.829,5.510
-0.109,0.022,1.024,-2.369,0.874,5.590
-0.114,0.022,1.023,-1.974,0.979,5.717
-0.119,0.022,1.022,-1.633,1.111,5.900
-0.124,0.021,1.021,-1.348,1.237,6.126
-0.129,0.021,1.020,-1.091,1.343,6.394
-0.134,0.021,1.019,-0.866,1.427,6.692
-0.138,0.021,1.017,-0.673,1.495,7.030
-0.143,0.021,1.017,-0.539,1.541,7.388
-0.147,0.021,1.015,-0.418,1.619,7.728
-0.150,0.022,1.013,-0.316,1.750,8.057
-0.154,0.022,1.012,-0.230,1.929,8.377
-0.157,0.023,1.011,-0.157,2.125,8.690
-0.161,0.024,1.010,-0.103,2.337,8.981
-0.165,0.025,1.008,-0.123,2.559,9.266
-0.168,0.026,1.007,-0.256,2.781,9.539
-0.172,0.026,1.007,-0.530,2.990,9.798
-0.175,0.026,1.007,-0.908,3.182,10.056
-0.178,0.025,1.006,-1.382,3.378,10.318
-0.181,0.025,1.006,-1.926,3.593,10.607
-0.183,0.024,1.005,-2.501,3.831,10.969
-0.185,0.024,1.005,-3.092,4.084,11.395
-0.187,0.024,1.005,-3.641,4.365,11.883
-0.189,0.025,1.004,-4.163,4.680,12.440
-0.191,0.025,1.003,-4.620,5.064,13.064
-0.192,0.025,1.002,-5.001,5.489,13.744
-0.194,0.024,1.001,-5.342,5.936,14.467
-0.196,0.024,1.001,-5.676,6.378,15.250
-0.197,0.023,1.000,-5.994,6.800,16.042
-0.199,0.021,1.001,-6.316,7.175,16.834
-0.201,0.020,1.001,-6.673,7.470,17.629
-0.202,0.019,1.002,-7.047,7.720,18.431
-0.204,0.018,1.002,-7.485,7.922,19.234
-0.205,0.018,1.000,-7.986,8.177,20.070
-0.205,0.018,0.999,-8.499,8.531,20.946
-0.205,0.019,0.996,-9.025,9.026,21.851
-0.205,0.019,0.994,-9.595,9.636,22.769
-0.205,0.020,0.992,-10.237,10.365,23.690
-0.205,0.020,0.991,-10.989,11.127,24.614
-0.207,0.020,0.991,-11.858,11.895,25.517
-0.209,0.018,0.992,-12.877,12.631,26.386
-0.211,0.016,0.993,-13.895,13.305,27.220
-0.213,0.014,0.995,-14.891,13.881,28.007
-0.215,0.011,0.996,-15.819,14.419,28.772
-0.217,0.009,0.998,-16.671,14.904,29.508
-0.218,0.007,0.998,-17.457,15.390,30.247
-0.219,0.006,0.998,-18.315,15.953,31.016
-0.219,0.005,0.997,-19.310,16.611,31.815
-0.219,0.005,0.996,-20.512,17.432,32.629
-0.218,0.004,0.995,-21.958,18.390,33.440
-0.219,0.003,0.994,-23.554,19.456,34.245
-0.219,0.001,0.994,-25.235,20.566,35.034
-0.220,-0.003,0.994,-26.973,21.686,35.824
-0.219,-0.007,0.995,-28.648,22.796,36.612
-0.219,-0.012,0.996,-30.215,23.953,37.393
-0.218,-0.017,0.996,-31.703,25.079,38.230
-0.218,-0.021,0.997,-33.282,26.010,39.127
-0.218,-0.024,0.997,-34.878,26.852,40.044
-0.218,-0.027,0.995,-36.432,27.754,40.963
-0.219,-0.030,0.992,-37.944,28.720,41.932
-0.221,-0.032,0.988,-39.353,29.717,42.897
-0.224,-0.034,0.984,-40.685,30.762,43.805
-0.227,-0.036,0.980,-41.928,31.883,44.629
-0.230,-0.039,0.976,-42.998,33.053,45.373

-1.143,0.329,0.440,-40.912,32.290,44.407
-1.149,0.337,0.437,-38.535,31.332,43.285
-1.154,0.344,0.433,-35.820,30.235,42.006
-1.159,0.351,0.429,-32.787,28.944,40.527
-1.164,0.357,0.425,-29.296,27.520,38.765
-1.168,0.362,0.421,-25.637,25.981,36.763
-1.173,0.367,0.416,-21.915,24.269,34.521
-1.177,0.370,0.412,-18.154,22.444,32.078
-1.180,0.373,0.406,-14.534,20.522,29.477
-1.184,0.375,0.401,-11.129,18.489,26.715
-1.186,0.376,0.397,-7.905,16.271,23.935
-1.189,0.376,0.394,-4.866,13.721,21.183
-1.191,0.375,0.391,-2.068,10.931,18.478
-1.193,0.374,0.390,0.511,7.977,15.787
-1.194,0.371,0.390,3.000,4.978,13.105
-1.195,0.367,0.390,5.452,1.992,10.524
-1.195,0.363,0.392,7.885,-0.883,8.023
-1.195,0.358,0.394,10.289,-3.556,5.572
-1.194,0.353,0.397,12.692,-5.983,3.185
-1.194,0.348,0.400,15.105,-8.231,0.841
-1.195,0.342,0.403,17.589,-10.411,-1.541
-1.195,0.336,0.405,20.296,-12.561,-3.986
-1.195,0.331,0.408,23.273,-14.857,-6.481
-1.194,0.327,0.412,26.521,-17.292,-9.125
-1.192,0.323,0.416,30.007,-19.862,-11.926
-1.191,0.320,0.421,33.397,-22.617,-15.054
-1.188,0.317,0.425,36.714,-25.474,-18.519
-1.184,0.314,0.429,39.806,-28.524,-22.391
-1.179,0.311,0.433,42.843,-31.730,-27.058
-1.172,0.307,0.437,46.109,-35.062,-32.150
-1.164,0.302,0.441,49.344,-38.727,-37.927
-1.155,0.298,0.445,52.319,-42.929,-44.323
-1.144,0.293,0.450,55.418,-47.550,-51.218
-1.130,0.287,0.456,59.110,-52.705,-58.742
-1.113,0.280,0.463,63.520,-58.480,-66.428
-1.088,0.273,0.474,68.697,-65.544,-74.276
-1.061,0.265,0.486,74.507,-73.237,-82.066
-1.029,0.255,0.501,81.033,-81.280,-89.895
-0.992,0.242,0.518,88.049,-89.482,-97.031
-0.951,0.229,0.538,94.458,-97.421,-102.965
-0.908,0.218,0.558,99.727,-104.397,-107.777
-0.864,0.209,0.577,103.860,-110.157,-111.807
-0.821,0.201,0.596,107.209,-114.863,-115.187
-0.777,0.192,0.618,110.339,-118.818,-118.072
-0.733,0.182,0.643,113.978,-122.025,-120.525
-0.689,0.170,0.671,118.984,-123.932,-122.419
-0.647,0.160,0.698,125.176,-124.394,-123.706
-0.608,0.154,0.724,130.753,-123.331,-124.253
-0.570,0.150,0.744,133.807,-121.044,-124.153
-0.535,0.146,0.754,134.019,-117.945,-123.374
-0.504,0.139,0.760,131.951,-114.523,-122.065
-0.476,0.130,0.766,128.694,-111.278,-120.349
-0.454,0.119,0.774,124.038,-107.910,-118.166
-0.436,0.107,0.783,116.175,-104.326,-115.697
-0.422,0.095,0.791,106.460,-100.784,-112.967
-0.409,0.085,0.796,96.913,-97.296,-110.012
-0.398,0.078,0.798,89.093,-93.868,-106.965
-0.390,0.076,0.798,84.133,-90.608,-103.950
-0.383,0.075,0.798,81.292,-87.597,-101.060
-0.382,0.074,0.796,79.455,-84.904,-97.960
-0.380,0.074,0.795,78.257,-82.478,-94.549
-0.378,0.074,0.796,77.848,-80.111,-91.049
-0.377,0.073,0.798,78.064,-77.843,-87.646
-0.376,0.073,0.800,78.242,-75.712,-84.505
-0.374,0.072,0.803,77.953,-73.750,-81.701
-0.371,0.073,0.805,77.016,-71.900,-79.265
-0.368,0.073,0.808,75.542,-70.118,-77.038
-0.365,0.074,0.812,73.750,-68.373,-74.890
-0.361,0.076,0.815,71.180,-66.606,-72.832
-0.357,0.077,0.818,67.969,-64.765,-70.860
-0.354,0.079,0.822,64.397,-62.920,-68.963
-0.352,0.080,0.826,60.734,-61.098,-67.121
-0.351,0.080,0.830,57.400,-59.322,-65.330
-0.351,0.080,0.834,54.589,-57.608,-63.579
-0.351,0.079,0.839,52.283,-55.971,-61.860
-0.352,0.078,0.843,50.349,-54.416,-60.169
-0.352,0.077,0.847,48.774,-52.947,-58.493
-0.352,0.077,0.851,47.413,-51.564,-56.840
-0.352,0.076,0.854,46.229,-50.205,-55.214
-0.351,0.075,0.857,45.106,-48.844,-53.617
-0.351,0.075,0.860,43.980,-47.472,-52.027
-0.351,0.076,0.864,42.870,-46.105,-50.453
-0.351,0.076,0.867,41.802,-44.769,-48.963
-0.348,0.077,0.871,40.830,-43.498,-47.524
-0.349,0.078,0.875,39.913,-42.323,-46.135
-0.350,0.079,0.877,39.049,-41.217,-44.817
-0.350,0.080,0.879,38.191,-40.134,-43.554
-0.350,0.081,0.882,37.267,-39.062,-42.342
-0.351,0.082,0.885,36.230,-38.013,-41.186
-0.351,0.082,0.888,35.023,-36.994,-40.099
-0.352,0.082,0.891,33.721,-36.018,-39.061
-0.353,0.082,0.893,32.392,-35.095,-38.068
-0.353,0.082,0.896,31.068,-34.259,-37.113
-0.354,0.082,0.899,29.789,-33.511,-36.196
-0.355,0.082,0.900,28.661,-32.790,-35.310
-0.355,0.082,0.900,27.665,-32.043,-34.448
-0.354,0.081,0.901,26.768,-31.223,-33.595
-0.354,0.080,0.902,25.955,-30.366,-32.754
-0.353,0.080,0.903,25.194,-29.505,-31.913
-0.353,0.079,0.904,24.492,-28.655,-31.074
-0.353,0.078,0.905,23.838,-27.838,-30.240
-0.353,0.076,0.907,23.209,-27.070,-29.415
-0.353,0.075,0.909,22.621,-26.362,-28.607
-0.353,0.074,0.911,22.080,-25.721,-27.816
-0.354,0.072,0.912,21.574,-25.111,-27.045
-0.353,0.071,0.913,21.071,-24.510,-26.289
-0.353,0.070,0.915,20.537,-23.911,-25.550
-0.353,0.069,0.916,19.983,-23.296,-24.838
-0.353,0.068,0.917,19.418,-22.677,-24.157
-0.353,0.067,0.918,18.863,-22.064,-23.502
-0.353,0.066,0.919,18.341,-21.456,-22.869
-0.353,0.065,0.920,17.827,-20.865,-22.262
-0.354,0.064,0.921,17.349,-20.304,-21.664
-0.354,0.063,0.923,16.910,-19.774,-21.074
-0.355,0.062,0.925,16.503,-19.266,-20.487
-0.355,0.060,0.927,16.098,-18.766,-19.904
-0.355,0.059,0.928,15.690,-18.272,-19.316
-0.356,0.058,0.929,15.251,-17.793,-18.729
-0.356,0.058,0.930,14.804,-17.326,-18.147

0.519,0.161,1.257,44.318,-19.961,-38.939
0.539,0.135,1.251,55.152,-19.869,-52.880
0.549,0.094,1.258,54.163,-19.473,-59.206
0.545,0.055,1.267,37.265,-18.468,-59.100
0.533,0.034,1.268,-12.787,-15.670,-57.535
0.522,0.023,1.261,-66.648,-11.415,-55.011
0.518,0.011,1.253,-108.250,-7.074,-51.956
0.511,-0.005,1.244,-130.053,-2.863,-48.142
0.500,-0.012,1.234,-132.042,1.652,-43.631
0.481,-0.013,1.217,-128.562,5.379,-38.807
0.455,-0.005,1.194,-121.844,8.080,-34.249
0.426,0.004,1.174,-108.043,9.560,-30.280
0.396,0.004,1.157,-85.917,9.991,-27.164
0.368,-0.001,1.143,-60.381,9.654,-24.393
0.343,-0.008,1.132,-35.487,8.126,-21.822
0.320,-0.014,1.122,-14.880,5.653,-19.552
0.298,-0.015,1.114,-1.175,2.083,-17.710
0.276,-0.011,1.109,4.563,-2.131,-16.469
0.258,-0.004,1.103,6.818,-5.678,-15.584
0.243,0.005,1.097,7.168,-7.910,-14.996
0.231,0.015,1.091,6.339,-8.862,-14.741
0.219,0.023,1.084,3.378,-8.975,-14.790
0.208,0.027,1.079,-0.912,-8.616,-15.054
0.197,0.027,1.074,-5.802,-7.914,-15.483
0.185,0.025,1.071,-10.739,-7.189,-16.028
0.172,0.022,1.069,-15.321,-6.641,-16.563
0.158,0.019,1.066,-18.920,-6.334,-16.979
0.144,0.016,1.062,-21.633,-6.301,-17.218
0.129,0.013,1.058,-23.449,-6.671,-17.248
0.114,0.012,1.054,-24.443,-7.290,-17.087
0.100,0.010,1.050,-24.457,-8.004,-16.729
0.087,0.007,1.046,-23.906,-8.653,-16.269
0.074,0.005,1.043,-22.835,-9.083,-15.734
0.062,0.002,1.040,-21.217,-9.343,-15.162
0.051,0.000,1.038,-19.227,-9.434,-14.501
0.040,-0.002,1.036,-17.060,-9.387,-13.772
0.030,-0.004,1.035,-14.951,-9.248,-13.029
0.020,-0.006,1.036,-13.057,-9.051,-12.305
0.010,-0.007,1.036,-11.520,-8.838,-11.612
-0.000,-0.008,1.037,-10.496,-8.644,-10.969
-0.010,-0.010,1.037,-9.730,-8.474,-10.415
-0.020,-0.011,1.038,-9.116,-8.303,-9.947
-0.029,-0.012,1.037,-8.658,-8.120,-9.549
-0.038,-0.013,1.037,-8.290,-7.929,-9.200
-0.047,-0.013,1.036,-7.931,-7.718,-8.885
-0.056,-0.013,1.035,-7.492,-7.463,-8.609
-0.065,-0.013,1.034,-7.042,-7.182,-8.348
-0.073,-0.014,1.033,-6.605,-6.889,-8.093
-0.081,-0.015,1.033,-6.188,-6.622,-7.841
-0.089,-0.017,1.033,-5.827,-6.401,-7.611
-0.097,-0.019,1.033,-5.534,-6.265,-7.399
-0.104,-0.021,1.032,-5.294,-6.156,-7.206
-0.110,-0.022,1.030,-5.103,-6.034,-7.049
-0.115,-0.023,1.029,-4.968,-5.874,-6.905
-0.121,-0.024,1.028,-4.862,-5.696,-6.780
-0.126,-0.026,1.027,-4.737,-5.515,-6.634
-0.132,-0.027,1.026,-4.601,-5.363,-6.478
-0.138,-0.028,1.024,-4.441,-5.236,-6.328
-0.143,-0.029,1.023,-4.261,-5.100,-6.158
-0.149,-0.030,1.021,-4.060,-4.940,-5.977
-0.154,-0.030,1.020,-3.829,-4.769,-5.806
-0.159,-0.031,1.019,-3.569,-4.607,-5.645
-0.164,-0.032,1.018,-3.296,-4.471,-5.491
-0.168,-0.032,1.016,-3.046,-4.366,-5.359
-0.173,-0.032,1.014,-2.832,-4.264,-5.252
-0.176,-0.032,1.012,-2.672,-4.163,-5.155
-0.180,-0.033,1.011,-2.574,-4.074,-5.076
-0.184,-0.033,1.010,-2.503,-4.015,-5.009
-0.189,-0.034,1.008,-2.445,-3.964,-4.954
-0.192,-0.034,1.007,-2.387,-3.924,-4.895
-0.196,-0.034,1.005,-2.344,-3.892,-4.833
-0.200,-0.035,1.004,-2.308,-3.850,-4.754
-0.203,-0.035,1.002,-2.263,-3.782,-4.662
-0.206,-0.035,1.001,-2.186,-3.693,-4.566
-0.209,-0.036,1.000,-2.085,-3.594,-4.462
-0.212,-0.036,0.999,-1.964,-3.516,-4.352
-0.215,-0.037,0.998,-1.823,-3.456,-4.235
-0.218,-0.037,0.997,-1.677,-3.411,-4.106
-0.220,-0.037,0.996,-1.523,-3.369,-3.967
-0.223,-0.037,0.995,-1.359,-3.319,-3.814
-0.226,-0.038,0.995,-1.203,-3.276,-3.658
-0.229,-0.037,0.994,-1.065,-3.240,-3.501
-0.231,-0.037,0.992,-0.919,-3.177,-3.346
-0.233,-0.037,0.990,-0.786,-3.096,-3.194
-0.235,-0.037,0.989,-0.688,-3.011,-3.043
-0.237,-0.037,0.989,-0.648,-2.937,-2.899
-0.238,-0.037,0.988,-0.672,-2.884,-2.759
-0.240,-0.037,0.988,-0.733,-2.857,-2.622
-0.242,-0.038,0.987,-0.810,-2.852,-2.470
-0.244,-0.038,0.987,-0.899,-2.862,-2.302
-0.246,-0.038,0.987,-0.981,-2.873,-2.096
-0.247,-0.038,0.986,-1.047,-2.864,-1.863
-0.249,-0.038,0.986,-1.088,-2.811,-1.602
-0.250,-0.038,0.985,-1.102,-2.713,-1.302
-0.252,-0.038,0.984,-1.091,-2.576,-0.966
-0.253,-0.037,0.984,-1.073,-2.412,-0.619
-0.254,-0.037,0.984,-1.069,-2.249,-0.264
-0.255,-0.036,0.983,-1.109,-2.101,0.083
-0.256,-0.035,0.983,-1.212,-1.976,0.423
-0.257,-0.035,0.983,-1.403,-1.911,0.754
-0.258,-0.034,0.983,-1.692,-1.889,1.093
-0.259,-0.034,0.984,-2.208,-1.913,1.454
-0.260,-0.034,0.986,-2.937,-1.987,1.858
-0.260,-0.033,0.987,-3.863,-2.081,2.317
-0.259,-0.033,0.987,-4.938,-2.135,2.861
-0.258,-0.033,0.988,-6.150,-2.095,3.487
-0.257,-0.032,0.988,-7.447,-1.909,4.224
-0.256,-0.032,0.987,-8.853,-1.627,5.065
-0.254,-0.031,0.988,-10.395,-1.246,6.065
-0.252,-0.031,0.989,-12.055,-0.798,7.184
-0.250,-0.032,0.990,-13.934,-0.309,8.426
-0.247,-0.033,0.992,-16.085,0.155,9.809
-0.244,-0.034,0.994,-18.596,0.551,11.380
-0.241,-0.036,0.997,-21.494,0.766,13.051
-0.239,-0.037,0.998,-24.578,0.903,14.785
-0.235,-0.038,0.999,-27.607,1.081,16.610
-0.231,-0.039,0.999,-30.623,1.359,18.583
-0.226,-0.040,0.998,-33.591,1.844,20.663
-0.221,-0.041,0.996,-36.492,2.697,22.847

-1.022,0.347,0.539,-27.848,3.159,22.362
-1.027,0.353,0.535,-19.545,3.576,21.527
-1.033,0.359,0.529,-11.811,3.867,20.215
-1.038,0.363,0.522,-4.952,3.994,18.091
-1.042,0.365,0.514,1.261,3.910,15.330
-1.045,0.368,0.505,7.053,3.508,11.967
-1.044,0.370,0.497,12.506,2.523,8.082
-1.045,0.371,0.489,17.808,1.126,3.769
-1.046,0.371,0.480,22.964,-0.616,-0.755
-1.047,0.372,0.473,28.207,-2.518,-5.305
-1.048,0.374,0.466,33.324,-4.509,-9.850
-1.049,0.376,0.459,38.269,-6.613,-14.498
-1.050,0.379,0.450,43.022,-8.780,-19.312
-1.051,0.381,0.441,47.397,-11.037,-24.442
-1.051,0.384,0.433,50.832,-13.415,-29.865
-1.051,0.386,0.424,53.278,-16.056,-35.740
-1.051,0.390,0.416,54.731,-19.072,-42.218
-1.051,0.393,0.407,54.982,-22.678,-49.966
-1.050,0.395,0.401,54.454,-27.330,-58.661
-1.048,0.394,0.392,53.544,-33.313,-68.277
-1.040,0.391,0.386,52.638,-39.990,-78.745
-1.029,0.385,0.381,52.119,-47.056,-89.142
-1.019,0.376,0.381,51.960,-54.833,-99.576
-1.009,0.368,0.381,52.361,-63.610,-109.982
-0.998,0.360,0.382,53.336,-72.883,-120.383
-0.986,0.351,0.385,54.567,-82.946,-130.856
-0.972,0.340,0.390,55.421,-93.860,-141.549
-0.955,0.326,0.401,55.859,-106.418,-152.563
-0.931,0.306,0.418,56.174,-119.585,-163.825
-0.895,0.272,0.441,57.002,-132.659,-173.281
-0.852,0.240,0.467,58.378,-144.699,-179.076
-0.809,0.217,0.494,59.965,-154.781,-182.592
-0.771,0.205,0.521,61.338,-161.579,-184.418
-0.732,0.197,0.547,63.010,-165.314,-186.175
-0.689,0.191,0.575,66.596,-166.477,-188.405
-0.639,0.179,0.607,70.258,-165.382,-189.460
-0.584,0.159,0.641,76.615,-161.650,-189.086
-0.532,0.136,0.672,86.703,-157.239,-187.456
-0.487,0.116,0.701,99.553,-152.668,-185.010
-0.449,0.102,0.728,111.873,-148.378,-181.900
-0.415,0.090,0.752,120.370,-144.425,-178.355
-0.386,0.078,0.771,124.559,-140.578,-174.499
-0.361,0.064,0.786,125.213,-136.802,-170.492
-0.339,0.050,0.800,123.019,-133.029,-166.301
-0.319,0.036,0.811,120.061,-129.330,-162.106
-0.302,0.024,0.822,117.151,-125.744,-157.938
-0.288,0.014,0.831,112.584,-122.278,-153.802
-0.276,0.007,0.838,107.211,-118.926,-149.722
-0.267,0.003,0.843,102.163,-115.708,-145.652
-0.259,0.000,0.847,97.898,-112.668,-141.677
-0.254,-0.002,0.849,94.554,-109.039,-137.809
-0.249,-0.004,0.851,92.114,-105.281,-134.060
-0.246,-0.007,0.854,90.014,-101.679,-130.433
-0.244,-0.011,0.857,88.151,-98.335,-126.928
-0.242,-0.014,0.861,86.507,-95.490,-123.541
-0.241,-0.017,0.865,84.993,-92.955,-120.269
-0.240,-0.020,0.869,83.535,-90.479,-117.108
-0.239,-0.023,0.873,82.084,-88.080,-114.047
-0.238,-0.025,0.877,80.604,-85.760,-111.085
-0.236,-0.027,0.880,79.094,-83.497,-108.218
-0.234,-0.028,0.882,77.478,-81.280,-105.451
-0.232,-0.028,0.884,75.815,-79.049,-102.663
-0.229,-0.027,0.885,74.127,-76.413,-99.865
-0.227,-0.027,0.887,72.456,-73.672,-97.084
-0.226,-0.028,0.890,70.821,-70.936,-94.365
-0.226,-0.030,0.892,69.226,-68.330,-91.703
-0.226,-0.031,0.895,67.672,-66.039,-89.109
-0.226,-0.032,0.899,66.156,-64.033,-86.562
-0.227,-0.033,0.902,64.679,-62.244,-84.072
-0.227,-0.033,0.904,63.233,-60.570,-81.619
-0.227,-0.033,0.906,61.814,-58.947,-79.187
-0.228,-0.033,0.907,60.431,-57.359,-76.807
-0.228,-0.032,0.909,59.082,-55.743,-74.508
-0.228,-0.031,0.910,57.759,-54.074,-72.295
-0.229,-0.031,0.912,56.459,-52.319,-70.160
-0.229,-0.030,0.914,55.151,-50.569,-68.095
-0.230,-0.029,0.916,53.800,-48.901,-66.160
-0.231,-0.029,0.918,52.385,-47.349,-64.320
-0.231,-0.029,0.920,50.897,-45.984,-62.569
-0.232,-0.029,0.922,49.380,-44.732,-60.906
-0.233,-0.030,0.924,47.900,-43.535,-59.286
-0.233,-0.030,0.925,46.490,-42.379,-57.709
-0.234,-0.030,0.927,45.139,-41.254,-56.134
-0.235,-0.029,0.928,43.888,-40.140,-54.529
-0.236,-0.029,0.928,42.794,-39.002,-52.920
-0.236,-0.028,0.929,41.852,-37.712,-51.290
-0.237,-0.027,0.929,40.982,-36.362,-49.654
-0.238,-0.027,0.930,40.128,-35.032,-48.015
-0.239,-0.027,0.931,39.290,-33.798,-46.432
-0.240,-0.027,0.932,38.474,-32.756,-44.907
-0.241,-0.027,0.933,37.679,-31.836,-43.452
-0.241,-0.026,0.933,36.889,-30.967,-42.065
-0.242,-0.026,0.934,36.082,-30.131,-40.723
-0.244,-0.025,0.934,35.257,-29.329,-39.420
-0.245,-0.024,0.936,34.425,-28.559,-38.183
-0.246,-0.024,0.937,33.562,-27.825,-36.994
-0.247,-0.023,0.937,32.699,-27.130,-35.840
-0.249,-0.022,0.937,31.860,-26.436,-34.745
-0.250,-0.021,0.938,31.043,-25.727,-33.697
-0.250,-0.020,0.938,30.215,-25.000,-32.676
-0.251,-0.019,0.939,29.314,-24.274,-31.678
-0.252,-0.019,0.941,28.362,-23.565,-30.714
-0.253,-0.019,0.942,27.375,-22.886,-29.777
-0.254,-0.019,0.943,26.345,-22.240,-28.857
-0.254,-0.019,0.944,25.265,-21.633,-27.953
-0.255,-0.019,0.945,24.238,-21.050,-27.079
-0.256,-0.019,0.945,23.279,-20.472,-26.198
-0.257,-0.019,0.946,22.421,-19.897,-25.312
-0.258,-0.020,0.947,21.680,-19.337,-24.398
-0.259,-0.020,0.949,21.019,-18.785,-23.474
-0.260,-0.020,0.949,20.425,-18.250,-22.547
-0.261,-0.020,0.950,19.865,-17.714,-21.628
-0.261,-0.019,0.950,19.301,-17.183,-20.719
-0.262,-0.019,0.951,18.714,-16.658,-19.849
-0.263,-0.018,0.951,18.091,-16.154,-19.005
-0.263,-0.018,0.952,17.425,-15.677,-18.210
-0.264,-0.017,0.953,16.712,-15.239,-17.466
-0.265,-0.017,0.954,15.952,-14.846,-16.756
-0.265,-0.017,0.955,15.183,-14.504,-16.065

-1.054,0.316,0.548,10.494,-13.707,-15.997
-1.059,0.315,0.549,7.104,-12.854,-15.913
-1.062,0.314,0.548,4.796,-11.844,-15.747
-1.065,0.314,0.544,3.284,-10.728,-15.491
-1.068,0.314,0.540,2.338,-9.703,-15.273
-1.070,0.315,0.536,1.550,-8.883,-15.095
-1.071,0.317,0.531,0.885,-8.323,-14.885
-1.070,0.319,0.528,0.409,-8.136,-14.631
-1.069,0.323,0.525,0.236,-8.168,-14.368
-1.067,0.326,0.524,0.555,-8.388,-14.135
-1.064,0.330,0.522,1.481,-8.735,-13.909
-1.061,0.334,0.521,3.314,-9.166,-13.707
-1.060,0.338,0.519,6.334,-9.605,-13.540
-1.060,0.344,0.517,10.688,-10.015,-13.484
-1.061,0.352,0.513,16.841,-10.417,-13.598
-1.063,0.359,0.510,23.702,-10.939,-13.928
-1.066,0.367,0.505,30.819,-11.825,-14.545
-1.069,0.376,0.502,37.524,-13.095,-15.556
-1.073,0.385,0.499,43.327,-14.905,-17.259
-1.078,0.394,0.495,48.533,-17.686,-19.545
-1.085,0.403,0.493,53.100,-20.736,-22.412
-1.090,0.413,0.497,57.298,-24.641,-25.548
-1.094,0.422,0.495,61.832,-28.633,-28.828
-1.101,0.432,0.496,66.863,-32.369,-32.279
-1.107,0.441,0.497,72.578,-35.804,-35.710
-1.114,0.449,0.500,79.680,-38.700,-39.407
-1.124,0.457,0.506,87.308,-41.023,-43.538
-1.137,0.466,0.515,94.544,-42.866,-48.309
-1.151,0.474,0.525,100.905,-44.483,-53.945
-1.164,0.478,0.538,105.930,-46.007,-61.345
-1.177,0.481,0.551,109.635,-47.607,-70.107
-1.188,0.481,0.566,112.005,-49.723,-80.426
-1.196,0.480,0.582,113.247,-52.439,-92.420
-1.198,0.477,0.600,113.466,-56.034,-106.779
-1.191,0.471,0.618,113.264,-60.418,-121.822
-1.177,0.462,0.640,112.808,-65.514,-137.370
-1.146,0.448,0.671,111.718,-71.159,-153.053
-1.100,0.421,0.706,111.461,-76.409,-166.278
-1.044,0.390,0.739,110.600,-80.206,-176.635
-0.987,0.359,0.766,109.598,-82.158,-184.756
-0.932,0.331,0.788,108.183,-82.626,-191.169
-0.876,0.303,0.810,106.326,-82.795,-195.456
-0.819,0.276,0.833,104.030,-83.056,-197.925
-0.764,0.250,0.856,101.656,-83.743,-198.922
-0.708,0.226,0.879,99.334,-84.905,-198.769
-0.655,0.200,0.901,97.272,-85.646,-197.147
-0.603,0.175,0.920,95.981,-85.447,-194.468
-0.555,0.153,0.933,95.773,-84.092,-190.986
-0.511,0.134,0.942,96.332,-82.217,-186.948
-0.472,0.119,0.946,97.105,-80.150,-182.281
-0.438,0.105,0.948,97.449,-77.863,-177.411
-0.408,0.091,0.947,97.138,-74.951,-172.514
-0.383,0.078,0.946,96.167,-71.962,-167.724
-0.362,0.067,0.944,94.574,-69.118,-163.139
-0.344,0.056,0.942,92.753,-66.564,-158.786
-0.333,0.047,0.939,90.856,-64.385,-154.665
-0.320,0.037,0.936,89.004,-62.473,-150.762
-0.310,0.030,0.932,87.350,-60.620,-146.856
-0.302,0.026,0.927,85.963,-58.664,-142.830
-0.295,0.024,0.920,84.881,-56.475,-138.773
-0.290,0.023,0.914,84.095,-54.197,-134.760
-0.286,0.022,0.908,83.547,-51.937,-130.949
-0.282,0.021,0.903,82.961,-49.807,-127.380
-0.279,0.019,0.900,82.175,-48.015,-124.093
-0.276,0.017,0.897,81.070,-46.532,-121.075
-0.272,0.014,0.895,79.586,-45.322,-118.097
-0.269,0.012,0.892,77.957,-44.210,-115.184
-0.265,0.010,0.890,76.271,-43.178,-112.346
-0.262,0.008,0.888,74.265,-42.187,-109.586
-0.259,0.006,0.885,72.184,-41.202,-106.904
-0.257,0.005,0.882,70.174,-40.194,-104.302
-0.256,0.005,0.880,68.329,-39.157,-101.775
-0.255,0.005,0.880,66.685,-37.996,-99.321
-0.255,0.005,0.880,65.290,-36.812,-96.937
-0.255,0.004,0.881,64.013,-35.683,-94.530
-0.255,0.003,0.881,62.802,-34.678,-92.148
-0.255,0.002,0.882,61.610,-33.825,-89.809
-0.255,0.001,0.883,60.412,-33.068,-87.506
-0.255,0.001,0.885,59.173,-32.406,-85.238
-0.255,0.000,0.887,57.761,-31.829,-82.997
-0.255,-0.000,0.889,56.195,-31.285,-80.769
-0.255,-0.001,0.890,54.426,-30.708,-78.520
-0.255,-0.001,0.891,52.444,-30.060,-76.208
-0.255,-0.001,0.892,50.447,-29.338,-73.860
-0.256,-0.001,0.892,48.589,-28.472,-71.513
-0.257,-0.001,0.893,46.925,-27.544,-69.189
-0.259,-0.001,0.895,45.567,-26.631,-66.901
-0.261,-0.002,0.897,44.446,-25.786,-64.645
-0.263,-0.003,0.899,43.495,-25.098,-62.434
-0.265,-0.003,0.900,42.661,-24.503,-60.271
-0.268,-0.003,0.902,41.889,-23.970,-58.185
-0.270,-0.003,0.904,41.137,-23.466,-56.176
-0.271,-0.002,0.906,40.381,-23.002,-54.235
-0.273,-0.001,0.909,39.494,-22.570,-52.390
-0.275,-0.001,0.911,38.533,-22.139,-50.628
-0.276,0.000,0.912,37.492,-21.689,-48.940
-0.278,0.001,0.913,36.327,-21.195,-47.332
-0.279,0.001,0.915,35.030,-20.685,-45.809
-0.280,0.001,0.917,33.634,-20.190,-44.384
-0.281,0.000,0.919,32.288,-19.718,-43.032
-0.281,-0.001,0.922,31.071,-19.261,-41.740
-0.282,-0.002,0.923,29.999,-18.821,-40.490
-0.284,-0.002,0.925,29.091,-18.406,-39.243
-0.285,-0.003,0.928,28.268,-18.031,-38.014
-0.287,-0.003,0.930,27.493,-17.716,-36.809
-0.289,-0.004,0.932,26.773,-17.422,-35.632
-0.290,-0.004,0.934,26.102,-17.124,-34.498
-0.292,-0.004,0.936,25.459,-16.807,-33.391
-0.293,-0.004,0.938,24.775,-16.465,-32.292
-0.294,-0.003,0.939,23.973,-16.118,-31.229
-0.294,-0.003,0.940,23.056,-15.750,-30.209
-0.295,-0.003,0.941,22.135,-15.356,-29.244
-0.295,-0.004,0.943,21.225,-14.931,-28.309
-0.295,-0.005,0.944,20.363,-14.508,-27.384
-0.295,-0.005,0.946,19.572,-14.109,-26.454
-0.296,-0.006,0.947,18.845,-13.748,-25.509
-0.296,-0.007,0.948,18.211,-13.410,-24.557
-0.297,-0.007,0.948,17.655,-13.075,-23.605
-0.298,-0.007,0.949,17.174,-12.740,-22.643

-1.034,0.307,0.569,20.532,-14.117,-23.269
-1.039,0.310,0.571,24.452,-15.244,-24.209
-1.044,0.313,0.577,29.042,-16.234,-25.388
-1.049,0.317,0.582,33.330,-17.073,-26.686
-1.055,0.319,0.596,37.190,-18.351,-28.217
-1.062,0.319,0.607,40.642,-19.816,-29.954
-1.070,0.318,0.620,43.712,-21.274,-31.803
-1.079,0.315,0.634,46.558,-22.512,-33.607
-1.088,0.311,0.647,49.557,-23.403,-35.308
-1.098,0.306,0.661,52.705,-23.902,-36.846
-1.109,0.301,0.675,55.930,-23.960,-38.093
-1.121,0.296,0.688,59.495,-23.820,-39.227
-1.132,0.289,0.702,63.170,-23.551,-40.366
-1.144,0.282,0.717,66.822,-23.175,-41.358
-1.157,0.273,0.731,70.762,-22.678,-42.392
-1.168,0.264,0.744,74.614,-22.155,-43.542
-1.179,0.255,0.758,78.047,-21.642,-44.925
-1.188,0.246,0.770,80.963,-21.168,-46.526
-1.195,0.237,0.782,83.612,-20.760,-48.494
-1.199,0.228,0.791,85.894,-20.464,-50.932
-1.201,0.221,0.797,87.632,-20.291,-55.372
-1.200,0.214,0.801,88.585,-20.301,-59.568
-1.196,0.206,0.803,89.018,-20.535,-64.886
-1.187,0.199,0.803,88.985,-21.160,-71.540
-1.176,0.191,0.802,88.565,-22.312,-80.669
-1.161,0.181,0.803,87.711,-24.384,-91.656
-1.142,0.171,0.801,86.682,-29.073,-104.502
-1.115,0.160,0.798,85.591,-34.457,-119.013
-1.084,0.149,0.794,84.532,-41.355,-134.845
-1.046,0.136,0.789,83.480,-49.574,-151.746
-1.004,0.127,0.786,82.299,-59.213,-167.922
-0.950,0.124,0.790,81.014,-71.105,-183.724
-0.892,0.125,0.801,79.783,-83.933,-199.611
-0.824,0.125,0.820,80.439,-96.183,-214.351
-0.742,0.121,0.855,86.310,-105.826,-226.430
-0.652,0.111,0.903,99.425,-109.476,-235.735
-0.560,0.097,0.946,116.158,-108.590,-241.422
-0.474,0.076,0.959,131.177,-105.850,-243.195
-0.398,0.050,0.943,139.012,-98.377,-242.557
-0.334,0.011,0.930,137.958,-88.925,-238.693
-0.289,-0.036,0.929,131.412,-80.060,-232.157
-0.257,-0.078,0.929,97.939,-71.367,-225.696
-0.232,-0.103,0.924,47.001,-63.264,-217.573
-0.210,-0.118,0.916,-3.479,-57.532,-206.162
-0.189,-0.127,0.912,-41.394,-53.795,-193.474
-0.175,-0.134,0.908,-56.970,-51.006,-179.625
-0.168,-0.132,0.903,-59.556,-48.439,-164.073
-0.167,-0.126,0.891,-57.716,-45.626,-148.382
-0.169,-0.116,0.878,-46.429,-42.752,-134.269
-0.174,-0.109,0.865,-26.281,-39.822,-122.068
-0.179,-0.107,0.853,0.816,-36.809,-111.167
-0.183,-0.109,0.843,29.800,-34.143,-101.410
-0.187,-0.109,0.835,53.644,-32.179,-93.226
-0.190,-0.107,0.830,69.451,-31.049,-86.098
-0.194,-0.103,0.828,77.429,-30.649,-79.997
-0.198,-0.097,0.829,78.479,-30.779,-75.115
-0.201,-0.090,0.832,77.273,-31.237,-71.160
-0.201,-0.084,0.837,74.813,-31.602,-68.069
-0.199,-0.081,0.842,70.259,-31.596,-65.654
-0.197,-0.081,0.846,64.019,-31.137,-63.819
-0.194,-0.083,0.849,57.561,-30.300,-62.264
-0.192,-0.085,0.852,51.441,-28.849,-60.902
-0.192,-0.087,0.856,45.979,-27.164,-59.619
-0.193,-0.089,0.858,41.572,-25.478,-58.346
-0.195,-0.091,0.861,37.880,-23.997,-57.007
-0.198,-0.093,0.863,34.797,-22.932,-55.563
-0.201,-0.095,0.865,32.215,-22.215,-53.941
-0.205,-0.097,0.866,30.411,-21.730,-52.233
-0.208,-0.100,0.868,29.195,-21.352,-50.412
-0.210,-0.102,0.870,28.486,-21.044,-48.473
-0.213,-0.104,0.873,28.688,-20.743,-46.382
-0.215,-0.105,0.876,28.768,-20.414,-44.163
-0.217,-0.105,0.879,29.048,-20.042,-41.873
-0.218,-0.104,0.881,29.536,-19.585,-39.584
-0.219,-0.103,0.884,30.241,-18.961,-37.273
-0.220,-0.102,0.887,31.000,-18.189,-35.030
-0.222,-0.102,0.890,31.675,-17.319,-32.862
-0.224,-0.102,0.894,32.169,-16.514,-30.811
-0.227,-0.102,0.898,32.355,-15.818,-28.908
-0.229,-0.102,0.901,32.342,-15.203,-27.190
-0.231,-0.102,0.903,32.144,-14.635,-25.655
-0.233,-0.102,0.906,31.778,-14.087,-24.268
-0.236,-0.101,0.908,31.235,-13.562,-23.038
-0.239,-0.100,0.911,30.569,-13.078,-21.925
-0.241,-0.100,0.913,29.810,-12.676,-20.924
-0.244,-0.099,0.914,28.990,-12.305,-20.034
-0.247,-0.098,0.915,28.129,-11.928,-19.232
-0.249,-0.097,0.917,27.231,-11.500,-18.490
-0.252,-0.096,0.918,26.327,-11.055,-17.817
-0.254,-0.096,0.920,25.493,-10.609,-17.217
-0.257,-0.096,0.922,24.746,-10.195,-16.662
-0.259,-0.095,0.924,24.057,-9.839,-16.133
-0.261,-0.095,0.925,23.410,-9.538,-15.651
-0.263,-0.095,0.926,22.751,-9.296,-15.206
-0.265,-0.095,0.927,22.152,-8.445,-14.785
-0.267,-0.094,0.928,21.606,-8.187,-14.400
-0.269,-0.094,0.928,21.116,-7.906,-14.018
-0.270,-0.095,0.929,20.645,-7.644,-13.650
-0.272,-0.095,0.931,20.157,-7.405,-13.290
-0.273,-0.095,0.932,19.659,-7.145,-12.944
-0.274,-0.095,0.932,19.207,-6.850,-12.613
-0.275,-0.095,0.933,18.793,-6.533,-12.284
-0.276,-0.095,0.934,18.385,-6.230,-11.969
-0.278,-0.095,0.935,17.957,-5.966,-11.681
-0.279,-0.095,0.937,17.493,-5.763,-11.418
-0.280,-0.095,0.937,16.986,-5.635,-11.171
-0.281,-0.095,0.938,16.450,-5.534,-10.937
-0.281,-0.095,0.937,15.891,-5.428,-10.708
-0.282,-0.095,0.937,15.305,-5.314,-10.477
-0.283,-0.095,0.938,14.709,-5.206,-10.243
-0.284,-0.095,0.939,14.108,-5.107,-9.999
-0.284,-0.095,0.940,13.560,-4.997,-9.738
-0.285,-0.095,0.940,13.096,-4.875,-9.465
-0.286,-0.095,0.940,12.707,-4.731,-9.175
-0.287,-0.095,0.941,12.382,-4.583,-8.878
-0.287,-0.094,0.942,12.118,-4.429,-8.551
-0.288,-0.094,0.943,11.895,-4.276,-8.220
-0.289,-0.094,0.943,11.704,-4.146,-7.887
-0.289,-0.093,0.944,11.519,-4.042,-7.552

-1.058,0.383,0.488,12.577,-6.899,-7.554
-1.063,0.390,0.492,14.457,-9.423,-7.792
-1.070,0.398,0.497,17.733,-11.658,-8.428
-1.077,0.406,0.504,21.793,-13.873,-9.442
-1.085,0.415,0.512,26.275,-16.218,-10.970
-1.095,0.424,0.520,30.882,-18.529,-13.096
-1.103,0.430,0.534,35.710,-21.128,-15.882
-1.107,0.433,0.550,39.670,-23.931,-18.883
-1.112,0.432,0.568,43.067,-26.809,-22.314
-1.119,0.428,0.589,45.902,-29.593,-25.974
-1.125,0.422,0.612,48.028,-32.123,-29.576
-1.130,0.411,0.636,49.188,-34.208,-33.132
-1.136,0.398,0.660,49.827,-35.570,-36.430
-1.140,0.384,0.682,50.252,-35.834,-39.321
-1.144,0.367,0.703,50.754,-35.466,-41.757
-1.149,0.350,0.724,51.734,-34.695,-43.607
-1.153,0.333,0.744,53.390,-33.413,-45.021
-1.157,0.317,0.764,55.815,-31.604,-46.105
-1.160,0.302,0.782,59.030,-29.328,-46.960
-1.162,0.288,0.797,63.187,-27.019,-47.676
-1.164,0.276,0.809,67.950,-24.713,-48.447
-1.165,0.265,0.817,73.095,-22.376,-49.412
-1.163,0.256,0.821,78.282,-20.097,-50.707
-1.158,0.247,0.824,83.185,-18.031,-52.656
-1.152,0.240,0.827,87.161,-16.398,-55.413
-1.144,0.234,0.829,89.740,-15.311,-59.136
-1.132,0.228,0.832,90.629,-15.024,-63.974
-1.118,0.220,0.835,89.998,-15.376,-70.622
-1.099,0.210,0.838,88.472,-16.453,-78.496
-1.076,0.196,0.840,86.883,-18.287,-87.222
-1.049,0.180,0.843,85.487,-20.335,-96.185
-1.021,0.165,0.845,84.807,-22.426,-104.875
-0.992,0.153,0.847,84.987,-24.434,-112.820
-0.961,0.144,0.849,86.039,-26.101,-120.121
-0.927,0.137,0.851,87.884,-27.509,-126.707
-0.891,0.128,0.854,91.029,-28.792,-132.627
-0.853,0.118,0.857,95.011,-30.183,-137.750
-0.812,0.107,0.863,99.221,-32.325,-142.127
-0.769,0.096,0.871,103.057,-35.124,-145.856
-0.724,0.084,0.880,106.007,-38.442,-149.023
-0.677,0.070,0.889,108.143,-41.919,-151.614
-0.629,0.056,0.898,110.012,-45.070,-153.582
-0.583,0.043,0.906,111.452,-47.244,-154.882
-0.539,0.031,0.912,111.989,-48.499,-155.547
-0.499,0.021,0.914,110.885,-48.918,-155.204
-0.463,0.014,0.915,108.820,-48.671,-154.062
-0.432,0.006,0.913,106.520,-47.780,-152.273
-0.404,-0.002,0.911,102.541,-46.625,-149.780
-0.379,-0.013,0.908,96.760,-44.899,-146.918
-0.357,-0.026,0.905,90.426,-42.520,-143.759
-0.340,-0.040,0.902,83.978,-39.865,-140.454
-0.325,-0.052,0.899,77.717,-37.118,-137.116
-0.313,-0.063,0.895,72.002,-34.479,-133.936
-0.304,-0.073,0.890,67.052,-32.101,-130.457
-0.297,-0.081,0.885,63.030,-29.956,-125.924
-0.291,-0.088,0.880,60.306,-28.016,-120.778
-0.287,-0.093,0.875,58.454,-26.323,-115.284
-0.284,-0.097,0.871,57.315,-24.777,-109.674
-0.282,-0.100,0.867,56.583,-23.376,-104.148
-0.282,-0.102,0.865,56.179,-22.118,-98.904
-0.282,-0.105,0.863,56.068,-21.010,-94.009
-0.282,-0.107,0.862,56.150,-20.033,-89.576
-0.282,-0.108,0.861,56.235,-19.243,-85.564
-0.283,-0.108,0.861,56.157,-18.696,-81.979
-0.284,-0.107,0.862,55.873,-18.294,-78.773
-0.286,-0.106,0.862,55.264,-17.957,-76.001
-0.287,-0.104,0.862,54.457,-17.634,-73.533
-0.287,-0.103,0.863,53.498,-17.276,-71.316
-0.288,-0.101,0.864,52.300,-16.869,-69.317
-0.288,-0.100,0.865,50.813,-16.411,-67.521
-0.288,-0.100,0.866,49.096,-15.920,-65.851
-0.288,-0.099,0.867,47.152,-15.447,-64.285
-0.288,-0.100,0.868,45.026,-15.031,-62.765
-0.289,-0.101,0.870,42.911,-14.687,-61.246
-0.290,-0.102,0.871,40.847,-14.424,-59.698
-0.291,-0.103,0.874,38.842,-14.227,-58.117
-0.292,-0.104,0.876,36.946,-14.099,-56.426
-0.293,-0.104,0.878,35.269,-13.996,-54.669
-0.295,-0.104,0.879,33.845,-13.856,-52.864
-0.296,-0.104,0.880,32.687,-13.664,-50.985
-0.297,-0.104,0.882,31.655,-13.436,-49.090
-0.298,-0.104,0.883,30.718,-13.184,-47.171
-0.300,-0.104,0.884,29.905,-12.908,-45.267
-0.302,-0.104,0.886,29.227,-12.608,-43.369
-0.304,-0.104,0.889,28.621,-12.296,-41.507
-0.306,-0.104,0.892,28.071,-11.985,-39.702
-0.308,-0.104,0.895,27.600,-11.715,-37.992
-0.310,-0.104,0.897,27.231,-11.455,-36.388
-0.312,-0.104,0.898,26.987,-11.132,-34.903
-0.313,-0.104,0.900,26.797,-10.778,-33.509
-0.315,-0.103,0.902,26.580,-10.408,-32.219
-0.316,-0.103,0.904,26.254,-10.073,-31.039
-0.318,-0.103,0.906,25.795,-9.823,-29.961
-0.320,-0.103,0.908,25.199,-9.649,-28.986
-0.322,-0.103,0.911,24.315,-9.573,-28.131
-0.324,-0.103,0.912,23.310,-9.537,-27.372
-0.325,-0.103,0.912,22.302,-9.479,-26.695
-0.326,-0.103,0.913,21.332,-9.377,-26.081
-0.327,-0.104,0.915,20.448,-9.238,-25.489
-0.327,-0.104,0.917,19.656,-9.082,-24.904
-0.329,-0.105,0.918,18.918,-8.933,-24.316
-0.330,-0.106,0.919,18.252,-8.781,-23.714
-0.330,-0.106,0.919,17.670,-8.607,-23.106
-0.331,-0.107,0.919,17.187,-8.403,-22.491
-0.332,-0.108,0.920,16.822,-8.181,-21.870
-0.333,-0.109,0.921,16.511,-7.954,-21.259
-0.334,-0.110,0.922,16.226,-7.753,-20.669
-0.335,-0.111,0.923,15.946,-7.596,-20.106
-0.336,-0.113,0.923,15.668,-7.469,-19.564
-0.336,-0.113,0.923,15.382,-7.369,-19.042
-0.337,-0.114,0.923,15.057,-7.305,-18.534
-0.338,-0.114,0.923,14.690,-7.247,-18.039
-0.338,-0.114,0.922,14.257,-7.186,-17.547
-0.338,-0.115,0.922,13.812,-7.104,-17.062
-0.338,-0.115,0.922,13.409,-7.009,-16.591
-0.339,-0.116,0.922,13.087,-6.909,-16.123
-0.339,-0.116,0.922,12.814,-6.811,-15.658
-0.339,-0.116,0.921,12.579,-6.725,-15.210
-0.339,-0.117,0.921,12.379,-6.642,-14.773

-1.200,0.131,0.597,11.981,-4.259,-10.895
-1.214,0.142,0.593,11.571,-1.984,-7.329
-1.228,0.153,0.589,11.141,0.174,-4.140
-1.241,0.164,0.586,10.748,2.258,-1.389
-1.255,0.175,0.584,10.389,4.133,0.879
-1.267,0.186,0.583,10.031,5.737,2.726
-1.278,0.196,0.582,9.680,7.030,4.177
-1.287,0.206,0.579,9.347,7.946,5.289
-1.293,0.215,0.575,9.072,8.597,6.086
-1.298,0.222,0.571,8.820,8.976,5.957
-1.302,0.228,0.565,8.639,9.142,6.112
-1.304,0.233,0.560,8.557,9.128,6.048
-1.304,0.236,0.554,8.564,8.969,5.801
-1.303,0.239,0.549,8.662,8.624,5.389
-1.300,0.241,0.544,8.833,8.106,4.824
-1.297,0.243,0.541,9.043,7.368,4.091
-1.294,0.245,0.538,9.326,6.418,3.081
-1.289,0.246,0.537,9.673,5.223,1.853
-1.284,0.247,0.536,10.151,3.816,0.409
-1.277,0.246,0.536,10.762,2.074,-1.245
-1.270,0.245,0.536,11.492,0.076,-3.130
-1.261,0.244,0.537,12.282,-2.164,-5.260
-1.252,0.242,0.537,13.205,-4.627,-7.797
-1.241,0.240,0.538,14.264,-7.203,-10.617
-1.230,0.236,0.539,15.406,-10.028,-13.777
-1.217,0.232,0.541,16.555,-13.012,-17.396
-1.203,0.227,0.544,17.654,-16.071,-21.642
-1.188,0.221,0.548,18.535,-19.371,-26.254
-1.173,0.213,0.555,19.285,-23.106,-31.161
-1.156,0.204,0.562,20.145,-27.417,-36.237
-1.139,0.195,0.571,21.233,-31.927,-41.480
-1.120,0.184,0.581,22.487,-36.594,-46.682
-1.099,0.173,0.592,23.798,-41.311,-51.623
-1.073,0.162,0.603,25.337,-45.757,-56.265
-1.045,0.150,0.614,27.321,-49.847,-60.586
-1.016,0.141,0.625,29.374,-53.607,-64.618
-0.984,0.131,0.635,31.351,-57.034,-68.457
-0.952,0.121,0.647,33.025,-60.442,-72.146
-0.919,0.109,0.658,34.134,-64.038,-75.741
-0.885,0.094,0.669,34.866,-67.891,-79.191
-0.850,0.079,0.682,35.227,-72.374,-82.414
-0.816,0.064,0.700,35.229,-77.858,-85.409
-0.781,0.048,0.717,35.351,-83.426,-88.127
-0.743,0.031,0.730,36.482,-87.705,-90.411
-0.706,0.015,0.740,38.880,-89.629,-92.013
-0.673,0.006,0.748,41.733,-89.965,-92.917
-0.642,0.001,0.754,43.986,-89.145,-93.173
-0.611,-0.004,0.759,45.661,-87.634,-92.943
-0.582,-0.011,0.765,46.722,-85.712,-92.290
-0.556,-0.021,0.771,47.232,-83.731,-91.320
-0.532,-0.032,0.778,47.078,-81.768,-90.055
-0.511,-0.044,0.784,46.514,-79.857,-88.649
-0.492,-0.056,0.790,45.526,-78.018,-87.130
-0.476,-0.066,0.797,43.889,-76.262,-85.505
-0.462,-0.075,0.803,41.257,-74.578,-83.839
-0.449,-0.082,0.808,38.076,-72.945,-82.158
-0.437,-0.090,0.811,34.700,-71.325,-80.475
-0.426,-0.097,0.811,31.609,-69.700,-78.486
-0.417,-0.104,0.811,29.119,-68.079,-76.326
-0.408,-0.110,0.811,27.098,-66.374,-74.030
-0.402,-0.116,0.813,25.474,-64.583,-71.627
-0.397,-0.122,0.815,24.236,-62.831,-69.141
-0.392,-0.127,0.818,23.437,-61.165,-66.572
-0.388,-0.133,0.820,22.887,-59.642,-63.988
-0.385,-0.137,0.823,22.494,-58.284,-61.429
-0.382,-0.142,0.825,22.179,-57.002,-58.915
-0.379,-0.145,0.828,21.908,-55.812,-56.495
-0.376,-0.148,0.831,21.679,-54.731,-54.166
-0.373,-0.150,0.832,21.506,-53.706,-51.977
-0.370,-0.153,0.835,21.414,-52.690,-49.937
-0.366,-0.154,0.837,21.361,-51.650,-48.030
-0.363,-0.156,0.841,21.335,-50.560,-46.248
-0.360,-0.158,0.845,21.332,-49.439,-44.590
-0.358,-0.160,0.850,21.327,-48.257,-43.071
-0.355,-0.162,0.855,21.240,-47.021,-41.648
-0.352,-0.165,0.859,21.002,-45.786,-40.310
-0.349,-0.167,0.863,20.537,-44.645,-39.053
-0.346,-0.169,0.868,19.793,-43.636,-37.881
-0.343,-0.172,0.873,18.671,-42.705,-36.778
-0.340,-0.174,0.876,17.374,-41.848,-35.733
-0.337,-0.177,0.879,16.038,-41.038,-34.749
-0.333,-0.179,0.882,15.529,-40.227,-33.798
-0.329,-0.181,0.884,14.389,-39.387,-32.875
-0.325,-0.182,0.886,13.400,-38.493,-31.966
-0.321,-0.184,0.888,12.556,-37.439,-31.064
-0.317,-0.186,0.891,11.845,-36.308,-30.177
-0.314,-0.188,0.895,11.292,-35.160,-29.269
-0.311,-0.191,0.898,10.842,-34.057,-28.381
-0.308,-0.193,0.902,10.472,-33.049,-27.503
-0.306,-0.196,0.905,10.173,-32.126,-26.639
-0.304,-0.198,0.908,9.902,-31.293,-25.784
-0.303,-0.199,0.911,9.672,-30.522,-24.946
-0.301,-0.200,0.914,9.480,-29.760,-24.127
-0.300,-0.200,0.916,9.347,-28.948,-23.329
-0.298,-0.201,0.917,9.259,-28.059,-22.559
-0.298,-0.201,0.919,9.185,-27.077,-21.831
-0.297,-0.202,0.921,9.099,-26.051,-21.170
-0.297,-0.202,0.923,9.005,-25.010,-20.552
-0.297,-0.202,0.925,8.897,-23.986,-19.991
-0.298,-0.203,0.927,8.755,-23.010,-19.481
-0.299,-0.203,0.929,8.544,-22.097,-19.034
-0.300,-0.203,0.930,8.321,-21.259,-18.620
-0.301,-0.204,0.931,8.105,-20.493,-18.228
-0.301,-0.204,0.931,7.903,-19.768,-17.865
-0.302,-0.204,0.930,7.838,-19.004,-17.520
-0.302,-0.205,0.929,7.911,-18.180,-17.184
-0.302,-0.204,0.927,8.075,-17.320,-16.861
-0.302,-0.203,0.927,8.274,-16.433,-16.590
-0.302,-0.203,0.926,8.472,-15.568,-16.352
-0.302,-0.204,0.926,8.670,-14.784,-16.148
-0.302,-0.204,0.926,8.828,-14.098,-15.989
-0.302,-0.204,0.926,8.831,-13.525,-15.880
-0.302,-0.204,0.926,8.683,-13.074,-15.809
-0.302,-0.204,0.927,8.398,-12.759,-15.765
-0.303,-0.204,0.928,7.994,-12.517,-15.752
-0.303,-0.204,0.928,7.468,-12.316,-15.749
-0.304,-0.204,0.928,6.928,-12.113,-15.733
-0.303,-0.204,0.928,6.449,-11.856,-15.700
-0.303,-0.204,0.928,6.071,-11.548,-15.626

0.455,-0.160,1.318,14.327,-11.609,-20.410
0.455,-0.174,1.325,15.716,-11.498,-24.078
0.450,-0.189,1.328,13.393,-11.309,-26.644
0.442,-0.204,1.328,3.601,-10.841,-27.625
0.434,-0.217,1.324,-7.974,-9.798,-27.682
0.424,-0.226,1.311,-16.844,-7.655,-27.148
0.410,-0.231,1.299,-21.281,-4.915,-25.977
0.394,-0.231,1.287,-21.255,-2.023,-23.957
0.376,-0.230,1.273,-19.588,0.557,-21.421
0.357,-0.229,1.258,-15.427,2.238,-18.536
0.338,-0.228,1.244,-9.228,3.152,-15.556
0.320,-0.226,1.230,-2.285,3.496,-12.706
0.302,-0.223,1.217,3.749,3.474,-10.198
0.285,-0.219,1.205,8.083,3.229,-8.154
0.269,-0.215,1.195,10.664,2.806,-6.599
0.254,-0.210,1.183,11.785,2.402,-5.519
0.239,-0.205,1.173,11.900,2.124,-4.958
0.224,-0.199,1.164,10.811,2.037,-4.669
0.211,-0.193,1.155,8.740,2.131,-4.569
0.198,-0.188,1.148,6.088,2.328,-4.573
0.184,-0.185,1.140,3.423,2.531,-4.608
0.171,-0.181,1.133,1.123,2.634,-4.614
0.157,-0.178,1.126,-0.514,2.591,-4.531
0.144,-0.176,1.119,-1.599,2.426,-4.317
0.130,-0.174,1.114,-2.171,2.157,-3.938
0.117,-0.172,1.108,-2.357,1.849,-3.385
0.105,-0.171,1.102,-2.203,1.568,-2.604
0.094,-0.169,1.096,-1.892,1.368,-1.673
0.083,-0.166,1.090,-1.497,1.289,-0.658
0.072,-0.162,1.084,-1.087,1.296,0.387
0.062,-0.159,1.078,-0.704,1.346,1.343
0.053,-0.154,1.073,-0.366,1.385,2.162
0.043,-0.149,1.068,-0.056,1.393,2.796
0.034,-0.144,1.062,0.206,1.344,3.252
0.024,-0.139,1.058,0.427,1.237,3.533
0.014,-0.135,1.054,0.602,1.054,3.648
0.004,-0.130,1.051,0.762,0.779,3.615
-0.006,-0.126,1.049,0.925,0.415,3.496
-0.016,-0.122,1.047,1.093,-0.037,3.316
-0.026,-0.118,1.044,1.286,-0.507,3.090
-0.035,-0.114,1.042,1.510,-0.917,2.832
-0.043,-0.111,1.040,1.716,-1.245,2.550
-0.051,-0.108,1.039,1.897,-1.501,2.260
-0.059,-0.107,1.037,2.058,-1.729,1.955
-0.067,-0.105,1.037,2.187,-1.980,1.649
-0.074,-0.104,1.036,2.259,-2.242,1.344
-0.081,-0.104,1.035,2.301,-2.483,1.056
-0.088,-0.104,1.034,2.363,-2.681,0.800
-0.094,-0.105,1.034,2.469,-2.817,0.590
-0.100,-0.106,1.034,2.619,-2.914,0.459
-0.106,-0.107,1.033,2.817,-3.002,0.404
-0.111,-0.108,1.033,3.030,-3.080,0.407
-0.117,-0.109,1.031,3.254,-3.134,0.463
-0.122,-0.109,1.030,3.472,-3.175,0.556
-0.126,-0.109,1.028,3.679,-3.209,0.665
-0.131,-0.109,1.026,3.892,-3.234,0.765
-0.135,-0.109,1.025,4.104,-3.282,0.850
-0.140,-0.109,1.023,4.297,-3.342,0.910
-0.145,-0.109,1.022,4.488,-3.394,0.931
-0.149,-0.109,1.020,4.664,-3.438,0.933
-0.154,-0.109,1.019,4.804,-3.467,0.926
-0.158,-0.108,1.018,4.891,-3.480,0.906
-0.163,-0.107,1.016,4.914,-3.490,0.852
-0.167,-0.107,1.015,4.891,-3.486,0.784
-0.171,-0.106,1.013,4.850,-3.479,0.679
-0.174,-0.105,1.011,4.767,-3.484,0.553
-0.177,-0.105,1.010,4.641,-3.516,0.396
-0.181,-0.105,1.009,4.481,-3.583,0.230
-0.184,-0.106,1.009,4.305,-3.695,0.075
-0.187,-0.106,1.008,4.153,-3.824,-0.076
-0.190,-0.106,1.007,4.043,-3.926,-0.192
-0.193,-0.107,1.006,3.987,-3.980,-0.266
-0.196,-0.107,1.005,3.924,-3.996,-0.306
-0.199,-0.107,1.004,3.882,-3.969,-0.326
-0.201,-0.107,1.003,3.877,-3.885,-0.314
-0.203,-0.106,1.002,3.909,-3.776,-0.292
-0.206,-0.106,1.001,3.944,-3.667,-0.253
-0.208,-0.106,1.000,3.951,-3.592,-0.208
-0.211,-0.106,1.000,3.926,-3.552,-0.167
-0.213,-0.106,0.999,3.873,-3.551,-0.137
-0.216,-0.105,0.998,3.811,-3.585,-0.112
-0.218,-0.105,0.998,3.771,-3.624,-0.089
-0.221,-0.104,0.997,3.744,-3.651,-0.070
-0.223,-0.103,0.997,3.739,-3.671,-0.051
-0.225,-0.103,0.997,3.754,-3.681,-0.033
-0.227,-0.102,0.996,3.774,-3.671,-0.017
-0.229,-0.101,0.995,3.780,-3.633,-0.006
-0.231,-0.100,0.994,3.761,-3.576,0.005
-0.232,-0.099,0.994,3.712,-3.516,0.005
-0.234,-0.098,0.994,3.618,-3.476,-0.012
-0.236,-0.097,0.993,3.494,-3.471,-0.045
-0.238,-0.097,0.993,3.376,-3.485,-0.091
-0.240,-0.096,0.992,3.271,-3.498,-0.141
-0.241,-0.095,0.992,3.167,-3.500,-0.176
-0.243,-0.095,0.992,3.070,-3.496,-0.194
-0.244,-0.094,0.992,2.959,-3.493,-0.205
-0.245,-0.094,0.993,2.835,-3.513,-0.197
-0.246,-0.094,0.993,2.690,-3.552,-0.168
-0.247,-0.093,0.993,2.534,-3.574,-0.107
-0.248,-0.092,0.993,2.385,-3.555,-0.029
-0.248,-0.091,0.993,2.259,-3.486,0.080
-0.248,-0.090,0.993,2.119,-3.382,0.204
-0.248,-0.089,0.993,1.946,-3.275,0.340
-0.248,-0.088,0.993,1.713,-3.190,0.494
-0.249,-0.088,0.994,1.416,-3.133,0.657
-0.249,-0.087,0.994,1.059,-3.094,0.846
-0.248,-0.086,0.995,0.651,-3.070,1.054
-0.248,-0.085,0.995,0.228,-3.031,1.290
-0.248,-0.085,0.995,-0.196,-2.961,1.559
-0.247,-0.084,0.995,-0.595,-2.827,1.849
-0.247,-0.084,0.996,-1.001,-2.657,2.162
-0.247,-0.084,0.997,-1.477,-2.469,2.513
-0.247,-0.083,0.998,-2.036,-2.282,2.892
-0.246,-0.083,0.999,-2.723,-2.121,3.296
-0.246,-0.083,1.000,-3.567,-1.982,3.759
-0.245,-0.083,1.001,-4.674,-1.863,4.264
-0.244,-0.084,1.003,-5.975,-1.761,4.809
-0.242,-0.084,1.005,-7.462,-1.680,5.397
-0.241,-0.089,1.007,-9.150,-1.609,6.066

-1.095,0.411,0.419,-12.354,-3.778,5.304
-1.101,0.417,0.423,-13.855,-6.232,4.548
-1.106,0.421,0.427,-13.738,-8.710,3.778
-1.110,0.426,0.430,-13.000,-10.964,2.975
-1.114,0.431,0.432,-11.358,-12.809,2.145
-1.118,0.436,0.434,-8.778,-14.309,1.291
-1.124,0.442,0.435,-5.120,-15.596,0.266
-1.130,0.448,0.435,-0.891,-16.654,-0.992
-1.136,0.453,0.435,3.747,-17.511,-2.479
-1.141,0.459,0.435,8.576,-18.279,-4.200
-1.146,0.463,0.436,13.612,-18.990,-6.271
-1.150,0.466,0.436,18.736,-19.806,-8.579
-1.154,0.468,0.437,23.936,-20.883,-11.054
-1.156,0.468,0.438,29.317,-22.153,-13.625
-1.159,0.468,0.440,36.461,-23.676,-16.401
-1.162,0.466,0.443,41.939,-25.460,-19.341
-1.164,0.464,0.446,47.177,-27.391,-22.444
-1.165,0.461,0.451,51.874,-29.472,-25.762
-1.167,0.457,0.456,55.682,-31.610,-29.371
-1.167,0.452,0.462,58.236,-33.745,-33.227
-1.168,0.446,0.469,59.879,-35.811,-37.452
-1.168,0.439,0.476,60.750,-37.750,-42.025
-1.168,0.431,0.484,61.048,-39.588,-47.107
-1.168,0.421,0.493,61.028,-41.331,-52.471
-1.167,0.411,0.503,61.095,-42.959,-58.031
-1.168,0.401,0.515,61.333,-44.634,-63.930
-1.169,0.389,0.528,61.774,-46.384,-70.067
-1.169,0.376,0.540,62.701,-48.152,-76.881
-1.167,0.364,0.550,64.448,-49.842,-83.974
-1.163,0.350,0.559,66.488,-51.464,-91.470
-1.155,0.338,0.568,68.350,-53.244,-99.325
-1.143,0.325,0.578,69.833,-55.422,-107.969
-1.128,0.313,0.589,70.462,-58.291,-116.953
-1.107,0.299,0.601,70.362,-63.530,-126.111
-1.079,0.284,0.614,69.695,-68.311,-135.400
-1.045,0.265,0.628,68.751,-73.742,-144.669
-1.005,0.242,0.645,67.779,-79.303,-153.048
-0.960,0.218,0.662,67.182,-84.249,-160.152
-0.912,0.195,0.681,67.441,-87.919,-165.810
-0.864,0.174,0.700,68.740,-90.709,-170.187
-0.815,0.156,0.719,71.176,-92.787,-173.310
-0.765,0.139,0.738,75.115,-94.402,-175.447
-0.715,0.121,0.757,79.858,-95.750,-176.641
-0.666,0.105,0.775,85.220,-96.717,-177.011
-0.620,0.089,0.793,90.910,-97.300,-176.787
-0.575,0.076,0.811,96.205,-97.344,-175.875
-0.531,0.064,0.831,100.508,-96.639,-174.538
-0.488,0.051,0.845,103.628,-94.958,-172.720
-0.450,0.038,0.853,104.536,-92.896,-170.215
-0.416,0.028,0.856,103.819,-90.750,-167.265
-0.386,0.017,0.856,101.950,-87.657,-163.908
-0.361,0.005,0.857,99.307,-83.648,-160.296
-0.339,-0.007,0.859,94.267,-79.323,-156.487
-0.321,-0.020,0.861,87.006,-74.905,-152.779
-0.307,-0.032,0.862,79.979,-70.522,-149.346
-0.297,-0.042,0.862,74.293,-66.344,-144.877
-0.290,-0.048,0.862,70.505,-62.409,-139.608
-0.284,-0.053,0.860,68.994,-58.681,-133.501
-0.279,-0.056,0.858,68.201,-55.113,-127.105
-0.275,-0.058,0.855,68.397,-51.715,-120.746
-0.271,-0.060,0.853,69.648,-48.543,-114.678
-0.267,-0.062,0.850,71.789,-45.690,-109.136
-0.264,-0.065,0.848,73.897,-43.330,-104.098
-0.261,-0.067,0.849,75.396,-41.461,-99.510
-0.258,-0.065,0.850,75.555,-40.024,-95.480
-0.256,-0.066,0.852,74.803,-38.920,-91.862
-0.254,-0.065,0.854,73.497,-38.058,-88.572
-0.251,-0.065,0.857,71.420,-37.302,-85.566
-0.249,-0.064,0.857,68.220,-36.520,-82.787
-0.246,-0.063,0.858,64.547,-35.587,-80.150
-0.244,-0.061,0.859,60.573,-34.392,-77.620
-0.242,-0.060,0.860,56.540,-33.070,-75.190
-0.241,-0.059,0.861,52.937,-31.693,-72.860
-0.240,-0.060,0.862,50.034,-30.297,-70.588
-0.240,-0.060,0.864,47.739,-28.955,-68.353
-0.239,-0.061,0.866,45.869,-27.730,-66.078
-0.240,-0.061,0.868,44.234,-26.684,-63.797
-0.241,-0.061,0.871,42.723,-25.892,-61.520
-0.242,-0.061,0.873,41.379,-25.209,-59.262
-0.242,-0.061,0.875,40.210,-24.569,-57.011
-0.242,-0.061,0.878,39.160,-23.950,-54.792
-0.242,-0.061,0.881,38.210,-23.325,-52.600
-0.242,-0.061,0.884,37.290,-22.715,-50.431
-0.242,-0.061,0.886,36.322,-22.125,-48.251
-0.242,-0.059,0.887,35.381,-21.498,-46.114
-0.242,-0.058,0.888,34.468,-20.763,-44.057
-0.242,-0.056,0.891,33.547,-19.963,-42.095
-0.242,-0.056,0.893,32.635,-19.136,-40.234
-0.243,-0.056,0.896,31.788,-18.350,-38.477
-0.244,-0.056,0.899,30.981,-17.700,-36.815
-0.245,-0.056,0.902,30.162,-17.157,-35.242
-0.247,-0.056,0.905,29.345,-16.690,-33.779
-0.248,-0.055,0.907,28.536,-16.281,-32.392
-0.249,-0.055,0.914,27.720,-15.930,-31.071
-0.250,-0.055,0.917,26.865,-15.624,-29.832
-0.251,-0.055,0.920,25.956,-15.377,-28.653
-0.251,-0.055,0.922,24.914,-15.159,-27.522
-0.252,-0.054,0.923,23.782,-14.926,-26.450
-0.252,-0.054,0.924,22.557,-14.628,-25.419
-0.252,-0.054,0.925,21.194,-14.272,-24.410
-0.252,-0.054,0.926,19.697,-13.868,-23.438
-0.251,-0.055,0.927,18.229,-13.439,-22.515
-0.252,-0.056,0.929,16.854,-12.985,-21.620
-0.252,-0.057,0.930,15.658,-12.525,-20.739
-0.253,-0.058,0.932,14.632,-12.102,-19.865
-0.253,-0.059,0.933,13.773,-11.746,-18.994
-0.255,-0.059,0.934,13.060,-11.461,-18.115
-0.256,-0.060,0.934,12.570,-11.191,-17.273
-0.257,-0.060,0.934,12.197,-10.896,-16.466
-0.257,-0.060,0.934,11.879,-10.560,-15.674
-0.258,-0.060,0.935,11.576,-10.214,-14.921
-0.259,-0.061,0.935,11.258,-9.866,-14.220
-0.260,-0.062,0.935,10.965,-9.529,-13.559
-0.260,-0.062,0.935,10.704,-9.198,-12.942
-0.260,-0.062,0.936,10.432,-8.878,-12.347
-0.261,-0.063,0.936,10.128,-8.580,-11.772
-0.261,-0.063,0.937,9.844,-8.318,-11.227
-0.262,-0.064,0.938,9.573,-8.136,-10.715
-0.262,-0.065,0.938,9.343,-8.002,-10.233

-1.046,0.306,0.573,9.648,-8.095,-8.633
-1.047,0.310,0.579,10.367,-8.253,-7.414
-1.049,0.315,0.587,11.366,-8.499,-6.487
-1.052,0.319,0.594,12.672,-8.792,-5.767
-1.056,0.324,0.601,14.371,-9.029,-5.254
-1.060,0.329,0.606,16.699,-9.154,-4.942
-1.066,0.335,0.609,19.466,-9.127,-4.763
-1.071,0.341,0.610,22.756,-8.919,-4.707
-1.077,0.348,0.610,26.744,-8.408,-4.739
-1.083,0.355,0.609,31.350,-7.671,-4.858
-1.091,0.363,0.606,36.748,-6.745,-5.097
-1.098,0.371,0.603,42.454,-5.715,-5.403
-1.106,0.378,0.600,48.268,-4.665,-5.783
-1.113,0.385,0.595,54.213,-3.696,-6.249
-1.121,0.393,0.590,60.183,-2.911,-6.816
-1.128,0.400,0.582,66.268,-2.311,-7.595
-1.135,0.408,0.574,72.226,-1.865,-8.585
-1.142,0.417,0.566,77.893,-1.677,-9.894
-1.151,0.428,0.558,83.030,-1.706,-11.599
-1.160,0.439,0.550,87.252,-1.936,-14.213
-1.169,0.450,0.543,90.609,-2.424,-17.674
-1.176,0.458,0.537,93.013,-3.335,-22.123
-1.182,0.463,0.532,94.573,-4.617,-27.730
-1.186,0.468,0.527,95.515,-6.344,-36.364
-1.188,0.470,0.522,95.728,-8.648,-44.816
-1.188,0.470,0.517,95.430,-11.657,-54.409
-1.187,0.469,0.512,94.694,-15.752,-65.145
-1.182,0.468,0.506,93.594,-20.716,-76.562
-1.174,0.464,0.501,91.882,-26.629,-89.026
-1.164,0.459,0.496,90.365,-33.495,-101.773
-1.150,0.454,0.493,88.841,-41.224,-114.432
-1.133,0.449,0.494,87.270,-50.713,-127.070
-1.111,0.441,0.498,85.664,-61.629,-139.689
-1.085,0.429,0.503,84.138,-73.459,-152.344
-1.051,0.410,0.513,82.876,-85.501,-164.238
-1.005,0.387,0.527,82.024,-97.452,-174.783
-0.953,0.361,0.545,81.612,-109.019,-183.601
-0.899,0.335,0.567,82.738,-120.402,-191.306
-0.841,0.310,0.592,83.875,-130.973,-198.098
-0.782,0.287,0.619,85.359,-139.828,-204.270
-0.721,0.267,0.649,86.572,-146.692,-209.856
-0.657,0.249,0.671,88.096,-150.307,-214.413
-0.590,0.230,0.690,90.138,-150.491,-217.213
-0.522,0.211,0.703,92.773,-147.411,-218.224
-0.460,0.191,0.715,95.432,-143.725,-217.793
-0.405,0.170,0.728,97.102,-140.278,-216.028
-0.360,0.146,0.739,96.526,-135.949,-212.583
-0.322,0.121,0.749,94.777,-131.389,-208.240
-0.292,0.095,0.758,91.313,-128.258,-203.364
-0.271,0.071,0.768,84.480,-125.220,-198.213
-0.254,0.048,0.777,74.631,-122.230,-193.152
-0.240,0.028,0.783,63.783,-119.328,-188.652
-0.227,0.010,0.783,55.368,-116.532,-183.108
-0.217,-0.006,0.783,50.407,-113.253,-176.114
-0.208,-0.019,0.782,48.231,-109.346,-167.858
-0.202,-0.029,0.783,47.965,-105.015,-159.405
-0.197,-0.037,0.785,48.963,-100.542,-151.138
-0.195,-0.044,0.787,51.372,-96.346,-143.346
-0.195,-0.050,0.790,54.704,-92.644,-136.302
-0.195,-0.053,0.794,57.520,-89.556,-129.934
-0.197,-0.055,0.800,59.119,-87.222,-124.173
-0.199,-0.057,0.807,59.450,-85.277,-118.927
-0.201,-0.057,0.813,58.692,-83.408,-114.166
-0.202,-0.057,0.818,57.291,-81.595,-109.776
-0.202,-0.055,0.823,54.983,-79.807,-105.683
-0.202,-0.053,0.829,51.935,-78.029,-101.927
-0.203,-0.052,0.834,48.501,-76.070,-98.439
-0.204,-0.053,0.839,45.360,-73.892,-95.099
-0.209,-0.056,0.845,42.764,-71.460,-91.880
-0.211,-0.059,0.851,40.761,-68.967,-88.695
-0.214,-0.063,0.857,39.302,-66.534,-85.477
-0.216,-0.066,0.863,38.310,-64.264,-82.269
-0.219,-0.068,0.869,37.527,-62.193,-79.104
-0.221,-0.071,0.874,36.901,-60.314,-76.008
-0.222,-0.073,0.878,36.430,-58.508,-72.943
-0.224,-0.075,0.882,36.116,-56.707,-69.968
-0.225,-0.076,0.886,35.836,-54.903,-67.112
-0.226,-0.077,0.890,35.544,-53.072,-64.371
-0.227,-0.078,0.894,35.193,-51.221,-61.798
-0.228,-0.079,0.897,34.797,-49.341,-59.367
-0.228,-0.079,0.900,34.350,-47.434,-57.064
-0.230,-0.080,0.904,33.870,-45.577,-54.917
-0.232,-0.081,0.907,33.419,-43.808,-52.903
-0.233,-0.083,0.911,33.041,-42.153,-50.954
-0.235,-0.085,0.915,32.766,-40.661,-49.064
-0.237,-0.086,0.918,32.580,-39.312,-47.193
-0.239,-0.088,0.920,32.480,-38.049,-45.329
-0.241,-0.088,0.921,32.533,-36.833,-43.502
-0.243,-0.089,0.922,32.706,-35.602,-41.700
-0.244,-0.089,0.922,32.933,-34.322,-39.929
-0.245,-0.088,0.922,33.200,-33.007,-38.218
-0.246,-0.087,0.922,33.423,-31.682,-36.571
-0.248,-0.087,0.923,33.568,-30.379,-34.999
-0.249,-0.086,0.925,33.598,-29.155,-33.479
-0.251,-0.086,0.926,33.457,-28.044,-32.049
-0.253,-0.085,0.928,33.194,-27.079,-30.724
-0.255,-0.085,0.929,32.780,-26.317,-29.481
-0.257,-0.084,0.930,32.202,-25.672,-28.345
-0.259,-0.083,0.930,31.518,-25.076,-27.318
-0.260,-0.081,0.930,30.810,-24.492,-26.386
-0.262,-0.080,0.929,30.103,-23.884,-25.545
-0.263,-0.078,0.929,29.412,-23.248,-24.811
-0.265,-0.077,0.928,28.711,-22.593,-24.169
-0.266,-0.075,0.928,27.986,-21.945,-23.594
-0.267,-0.074,0.929,27.230,-21.347,-23.084
-0.269,-0.074,0.930,26.421,-20.834,-22.636
-0.270,-0.073,0.931,25.543,-20.408,-22.233
-0.272,-0.074,0.933,24.611,-20.061,-21.855
-0.273,-0.074,0.934,23.597,-19.806,-21.489
-0.274,-0.075,0.936,22.557,-19.585,-21.119
-0.274,-0.075,0.937,21.479,-19.392,-20.721
-0.275,-0.076,0.938,20.424,-19.175,-20.286
-0.275,-0.076,0.938,19.406,-18.865,-19.813
-0.275,-0.076,0.939,18.436,-18.475,-19.297
-0.275,-0.076,0.940,17.524,-17.999,-18.715
-0.275,-0.077,0.941,16.731,-17.447,-18.093
-0.275,-0.077,0.943,16.074,-16.841,-17.429
-0.275,-0.078,0.945,15.514,-16.246,-16.713
-0.276,-0.079,0.947,15.012,-15.693,-15.987

-1.011,0.328,0.569,15.364,-15.208,-15.751
-1.013,0.328,0.570,15.835,-14.727,-15.690
-1.015,0.329,0.572,16.417,-14.251,-15.728
-1.018,0.330,0.573,17.175,-13.759,-15.838
-1.021,0.332,0.573,18.182,-13.261,-16.024
-1.025,0.334,0.573,19.666,-12.728,-16.279
-1.030,0.338,0.571,21.608,-12.097,-16.559
-1.035,0.343,0.567,24.073,-11.265,-16.882
-1.042,0.348,0.561,26.970,-10.266,-17.287
-1.049,0.354,0.555,30.189,-9.109,-17.795
-1.057,0.362,0.547,33.686,-7.818,-18.445
-1.065,0.370,0.538,37.259,-6.476,-19.171
-1.074,0.379,0.527,40.699,-5.140,-20.026
-1.083,0.389,0.516,43.968,-3.940,-20.998
-1.092,0.400,0.505,46.812,-2.988,-22.168
-1.102,0.413,0.493,49.221,-2.315,-23.538
-1.111,0.426,0.480,51.238,-1.967,-25.164
-1.122,0.440,0.468,52.853,-2.079,-27.145
-1.133,0.452,0.454,54.112,-2.537,-29.694
-1.142,0.462,0.441,54.992,-3.451,-33.375
-1.149,0.469,0.429,55.869,-4.796,-38.046
-1.151,0.473,0.417,57.052,-6.700,-43.757
-1.152,0.475,0.406,58.646,-9.113,-50.907
-1.152,0.477,0.398,60.539,-12.483,-59.181
-1.150,0.477,0.387,62.229,-16.983,-68.357
-1.147,0.477,0.378,63.572,-24.019,-78.528
-1.142,0.476,0.369,64.491,-33.031,-91.892
-1.136,0.472,0.359,64.990,-43.584,-104.087
-1.123,0.465,0.354,65.358,-56.068,-116.812
-1.105,0.455,0.350,66.310,-70.408,-129.733
-1.081,0.444,0.354,67.979,-85.987,-142.218
-1.054,0.430,0.359,71.260,-101.807,-154.542
-1.020,0.414,0.371,75.626,-118.099,-166.135
-0.977,0.396,0.390,80.641,-133.938,-175.934
-0.923,0.377,0.415,86.341,-147.864,-183.419
-0.862,0.359,0.441,93.874,-158.676,-188.526
-0.795,0.343,0.468,103.527,-166.201,-192.659
-0.723,0.329,0.504,115.844,-169.774,-196.402
-0.645,0.310,0.550,131.279,-170.798,-199.545
-0.571,0.287,0.599,148.087,-169.366,-201.277
-0.501,0.267,0.646,163.241,-166.184,-201.927
-0.438,0.249,0.684,173.995,-162.131,-201.587
-0.384,0.232,0.709,179.637,-158.063,-199.940
-0.339,0.214,0.732,180.580,-154.333,-197.209
-0.302,0.195,0.756,176.903,-150.708,-193.784
-0.273,0.177,0.780,172.921,-147.083,-190.112
-0.251,0.159,0.799,163.004,-143.497,-186.103
-0.233,0.140,0.814,146.459,-140.015,-181.829
-0.216,0.121,0.822,126.914,-136.659,-177.484
-0.203,0.105,0.827,108.913,-133.460,-173.384
-0.191,0.092,0.830,95.125,-130.039,-169.639
-0.183,0.082,0.832,86.291,-126.283,-165.060
-0.177,0.074,0.834,82.883,-122.343,-159.524
-0.174,0.068,0.835,81.421,-118.426,-153.561
-0.172,0.062,0.838,80.646,-114.784,-147.415
-0.172,0.056,0.842,80.868,-111.654,-141.313
-0.171,0.050,0.847,81.853,-109.010,-135.404
-0.171,0.045,0.852,83.163,-106.560,-129.710
-0.171,0.040,0.856,84.146,-104.176,-124.297
-0.171,0.037,0.861,84.412,-101.868,-119.108
-0.171,0.035,0.866,83.886,-99.626,-114.237
-0.171,0.035,0.872,82.506,-97.443,-109.690
-0.171,0.037,0.877,80.237,-95.306,-105.449
-0.170,0.039,0.881,76.625,-93.071,-101.525
-0.169,0.041,0.886,71.959,-90.598,-97.919
-0.169,0.041,0.891,66.621,-87.929,-94.642
-0.170,0.041,0.896,61.047,-85.157,-91.662
-0.172,0.040,0.900,55.777,-82.417,-88.875
-0.175,0.040,0.905,51.041,-79.786,-86.268
-0.178,0.039,0.909,46.934,-77.385,-83.794
-0.181,0.037,0.914,43.475,-75.269,-81.379
-0.184,0.036,0.918,40.560,-73.365,-79.022
-0.186,0.034,0.921,38.184,-71.564,-76.691
-0.187,0.032,0.924,36.261,-69.776,-74.339
-0.188,0.030,0.927,34.624,-67.978,-71.903
-0.188,0.029,0.930,33.219,-66.216,-69.432
-0.189,0.028,0.933,31.957,-64.524,-66.959
-0.189,0.027,0.935,30.859,-62.798,-64.549
-0.189,0.025,0.937,29.813,-60.987,-62.152
-0.189,0.025,0.939,28.800,-59.097,-59.802
-0.190,0.024,0.941,27.850,-57.209,-57.557
-0.191,0.023,0.944,26.983,-55.420,-55.455
-0.193,0.022,0.947,26.224,-53.748,-53.489
-0.195,0.020,0.950,25.556,-52.261,-51.651
-0.197,0.019,0.952,24.933,-50.948,-49.942
-0.198,0.018,0.954,24.346,-49.710,-48.367
-0.199,0.018,0.955,23.706,-48.463,-46.865
-0.200,0.017,0.956,23.020,-47.204,-45.435
-0.201,0.016,0.958,22.307,-45.972,-44.115
-0.202,0.016,0.960,21.550,-44.781,-42.876
-0.204,0.015,0.961,20.722,-43.655,-41.706
-0.205,0.014,0.963,19.876,-42.614,-40.601
-0.206,0.013,0.965,19.103,-41.725,-39.542
-0.208,0.012,0.965,18.534,-40.928,-38.557
-0.209,0.011,0.964,18.067,-40.104,-37.635
-0.209,0.011,0.965,17.564,-39.243,-36.752
-0.209,0.011,0.965,16.952,-38.327,-35.877
-0.209,0.010,0.965,16.248,-37.337,-34.995
-0.209,0.009,0.965,15.606,-36.267,-34.117
-0.209,0.008,0.965,15.108,-35.074,-33.218
-0.209,0.006,0.966,14.675,-33.846,-32.303
-0.210,0.004,0.968,14.215,-32.648,-31.348
-0.210,0.002,0.970,13.731,-31.511,-30.387
-0.210,-0.001,0.972,13.272,-30.472,-29.417
-0.211,-0.004,0.973,12.827,-29.544,-28.449
-0.211,-0.006,0.975,12.382,-28.698,-27.473
-0.210,-0.008,0.976,11.915,-27.898,-26.482
-0.210,-0.010,0.977,11.405,-27.124,-25.470
-0.209,-0.012,0.978,10.816,-26.367,-24.433
-0.208,-0.014,0.980,10.126,-25.604,-23.380
-0.207,-0.016,0.981,9.368,-24.798,-22.324
-0.206,-0.018,0.982,8.540,-23.951,-21.262
-0.205,-0.020,0.983,7.688,-23.072,-20.176
-0.204,-0.023,0.983,6.793,-22.162,-19.010
-0.203,-0.024,0.984,5.885,-21.224,-17.796
-0.202,-0.026,0.985,5.006,-20.262,-16.535
-0.201,-0.028,0.986,4.176,-19.313,-14.239
-0.200,-0.029,0.987,3.469,-18.375,-12.859
-0.200,-0.030,0.987,2.822,-17.477,-11.421

-1.120,0.407,0.392,1.295,-17.118,-9.204
-1.122,0.413,0.397,0.834,-16.781,-7.314
-1.124,0.418,0.402,1.049,-16.491,-5.775
-1.128,0.422,0.408,1.834,-16.178,-4.538
-1.129,0.424,0.414,3.599,-15.779,-3.458
-1.134,0.428,0.419,6.370,-15.390,-2.653
-1.139,0.431,0.424,10.364,-15.041,-2.263
-1.145,0.436,0.428,14.829,-14.798,-2.166
-1.150,0.442,0.431,19.495,-14.735,-2.314
-1.155,0.448,0.434,24.233,-14.798,-2.674
-1.159,0.455,0.436,29.057,-14.989,-3.296
-1.161,0.460,0.438,33.862,-15.287,-4.210
-1.164,0.465,0.439,38.526,-15.708,-5.433
-1.167,0.468,0.440,43.005,-16.347,-6.986
-1.170,0.470,0.440,47.243,-17.046,-8.858
-1.171,0.471,0.441,51.140,-17.807,-11.021
-1.172,0.471,0.440,54.876,-18.587,-13.452
-1.170,0.470,0.443,58.284,-19.527,-16.004
-1.169,0.467,0.445,61.417,-20.498,-18.737
-1.167,0.463,0.448,64.216,-21.616,-21.660
-1.164,0.459,0.452,66.488,-22.911,-24.645
-1.162,0.455,0.456,68.283,-24.447,-27.759
-1.160,0.450,0.461,69.618,-26.126,-31.008
-1.158,0.445,0.466,70.603,-27.991,-34.486
-1.156,0.439,0.472,71.264,-30.026,-38.126
-1.154,0.432,0.478,71.856,-32.145,-41.940
-1.150,0.425,0.484,72.475,-34.266,-45.880
-1.146,0.419,0.490,73.257,-36.233,-50.009
-1.141,0.413,0.496,74.241,-38.066,-54.459
-1.135,0.407,0.502,75.389,-39.756,-59.097
-1.128,0.401,0.509,76.681,-41.325,-63.896
-1.120,0.395,0.516,78.142,-42.926,-68.955
-1.112,0.389,0.523,79.796,-44.648,-74.631
-1.103,0.383,0.530,81.484,-46.583,-80.632
-1.089,0.376,0.539,82.940,-49.214,-87.018
-1.075,0.368,0.547,83.767,-52.664,-93.833
-1.058,0.358,0.557,83.301,-56.981,-101.481
-1.035,0.345,0.567,83.130,-62.034,-109.587
-1.006,0.330,0.581,82.834,-67.972,-118.084
-0.970,0.314,0.598,82.447,-74.404,-126.609
-0.929,0.297,0.616,82.209,-80.914,-134.747
-0.886,0.281,0.636,82.456,-86.907,-142.157
-0.842,0.266,0.656,83.256,-91.893,-148.792
-0.797,0.254,0.677,84.474,-95.933,-154.532
-0.751,0.242,0.696,86.101,-98.857,-159.197
-0.703,0.231,0.715,87.925,-100.702,-162.926
-0.656,0.218,0.733,89.567,-101.582,-165.755
-0.611,0.205,0.751,90.865,-101.607,-167.797
-0.568,0.192,0.768,91.684,-101.122,-169.125
-0.526,0.178,0.783,91.804,-100.192,-169.461
-0.489,0.164,0.796,91.266,-98.861,-169.093
-0.455,0.151,0.806,90.078,-97.178,-168.084
-0.427,0.137,0.814,88.502,-95.225,-166.427
-0.401,0.123,0.820,85.181,-93.228,-164.001
-0.379,0.107,0.826,80.037,-91.255,-161.138
-0.360,0.091,0.827,72.979,-89.019,-157.977
-0.345,0.074,0.833,64.230,-86.666,-154.652
-0.332,0.058,0.837,54.738,-84.197,-151.339
-0.320,0.043,0.839,46.317,-81.539,-148.244
-0.310,0.030,0.840,40.058,-78.678,-144.304
-0.301,0.019,0.840,36.222,-75.600,-139.614
-0.294,0.009,0.839,34.380,-72.506,-134.364
-0.289,0.002,0.839,34.357,-69.525,-128.582
-0.286,-0.005,0.839,34.730,-66.780,-122.577
-0.283,-0.011,0.840,35.810,-64.329,-116.540
-0.281,-0.017,0.841,37.373,-62.249,-110.656
-0.279,-0.023,0.842,39.120,-60.431,-105.051
-0.278,-0.028,0.844,40.653,-58.829,-99.844
-0.276,-0.032,0.846,41.732,-57.423,-95.017
-0.275,-0.036,0.850,42.223,-56.205,-90.569
-0.273,-0.038,0.854,42.157,-55.060,-86.465
-0.272,-0.039,0.857,41.461,-53.921,-82.725
-0.270,-0.040,0.861,40.187,-52.746,-79.273
-0.269,-0.041,0.864,38.420,-51.439,-76.055
-0.267,-0.043,0.867,36.418,-49.954,-72.978
-0.265,-0.045,0.870,34.266,-48.311,-70.007
-0.263,-0.048,0.873,32.095,-46.555,-67.100
-0.262,-0.050,0.876,29.987,-44.769,-64.247
-0.261,-0.052,0.879,28.041,-43.057,-61.422
-0.261,-0.055,0.882,26.415,-41.454,-58.591
-0.262,-0.058,0.885,25.029,-40.005,-55.784
-0.262,-0.060,0.887,23.822,-38.759,-53.003
-0.263,-0.062,0.889,22.823,-37.611,-50.256
-0.264,-0.064,0.891,22.110,-36.521,-47.598
-0.265,-0.065,0.893,21.543,-35.495,-45.025
-0.266,-0.066,0.896,21.078,-34.491,-42.572
-0.268,-0.067,0.898,20.733,-33.469,-40.289
-0.269,-0.067,0.900,20.499,-32.407,-38.151
-0.271,-0.067,0.902,20.309,-31.311,-36.177
-0.272,-0.068,0.905,20.133,-30.216,-34.373
-0.274,-0.068,0.908,19.969,-29.203,-32.706
-0.276,-0.068,0.910,19.827,-28.244,-31.210
-0.278,-0.068,0.912,19.682,-27.301,-29.840
-0.280,-0.068,0.914,19.508,-26.379,-28.580
-0.282,-0.069,0.916,19.287,-25.521,-27.418
-0.283,-0.070,0.918,19.005,-24.739,-26.341
-0.285,-0.071,0.920,18.660,-24.087,-25.324
-0.287,-0.072,0.921,18.296,-23.497,-24.358
-0.288,-0.072,0.922,17.895,-22.879,-23.424
-0.288,-0.072,0.923,17.423,-22.229,-22.519
-0.289,-0.073,0.925,16.920,-21.552,-21.628
-0.290,-0.074,0.927,16.454,-20.860,-20.742
-0.291,-0.075,0.928,16.047,-20.201,-19.858
-0.293,-0.076,0.930,15.640,-19.629,-18.951
-0.294,-0.077,0.931,15.234,-19.089,-18.042
-0.294,-0.077,0.932,14.826,-18.525,-17.131
-0.295,-0.078,0.934,14.419,-17.936,-16.216
-0.295,-0.079,0.935,14.068,-17.302,-15.288
-0.295,-0.080,0.936,13.751,-16.652,-14.382
-0.296,-0.080,0.936,13.429,-16.009,-13.498
-0.296,-0.080,0.937,13.142,-15.366,-12.637
-0.297,-0.080,0.937,12.889,-14.711,-11.812
-0.297,-0.080,0.937,12.641,-14.036,-11.030
-0.298,-0.080,0.937,12.392,-13.359,-10.301
-0.299,-0.081,0.938,12.157,-12.734,-9.641
-0.300,-0.081,0.939,11.916,-12.184,-9.040
-0.301,-0.082,0.940,11.649,-11.727,-8.492
-0.302,-0.083,0.941,11.317,-11.372,-7.996
-0.302,-0.083,0.943,10.892,-11.076,-7.547

-1.132,0.352,0.450,5.037,-11.391,-4.298
-1.142,0.369,0.452,-0.068,-11.945,-1.899
-1.152,0.387,0.456,-4.100,-12.763,-0.023
-1.162,0.404,0.461,-6.773,-13.890,1.437
-1.171,0.420,0.465,-7.960,-15.100,2.521
-1.179,0.436,0.468,-7.668,-16.207,3.185
-1.187,0.451,0.469,-6.780,-17.134,3.567
-1.194,0.466,0.468,-4.855,-17.735,3.680
-1.200,0.480,0.466,-1.988,-18.144,3.530
-1.206,0.493,0.464,1.751,-18.442,3.070
-1.211,0.504,0.461,5.758,-18.698,2.429
-1.215,0.513,0.457,9.756,-18.972,1.631
-1.219,0.519,0.455,13.488,-19.420,0.591
-1.221,0.524,0.453,16.943,-20.072,-0.715
-1.223,0.526,0.450,20.354,-20.942,-2.187
-1.223,0.526,0.448,23.932,-21.973,-3.752
-1.222,0.525,0.448,27.709,-23.253,-5.383
-1.222,0.525,0.448,31.861,-24.623,-7.158
-1.221,0.523,0.449,36.325,-25.956,-9.038
-1.220,0.520,0.449,41.061,-27.186,-11.019
-1.220,0.518,0.450,45.813,-28.279,-13.129
-1.221,0.516,0.451,50.426,-29.224,-15.403
-1.221,0.513,0.452,54.651,-30.081,-17.990
-1.221,0.510,0.455,58.552,-30.900,-20.794
-1.221,0.507,0.459,62.172,-31.744,-23.886
-1.220,0.504,0.463,65.493,-32.658,-27.289
-1.218,0.500,0.468,68.571,-33.759,-31.095
-1.216,0.495,0.474,71.320,-35.149,-35.558
-1.212,0.489,0.479,73.671,-36.911,-40.543
-1.206,0.482,0.486,75.477,-39.318,-46.148
-1.197,0.473,0.495,76.640,-42.282,-52.394
-1.185,0.461,0.505,77.142,-45.794,-59.445
-1.170,0.447,0.517,77.412,-49.665,-66.727
-1.150,0.432,0.531,77.605,-53.708,-73.958
-1.126,0.418,0.545,77.998,-57.692,-80.812
-1.100,0.404,0.559,78.820,-61.294,-87.132
-1.073,0.393,0.574,80.378,-64.397,-92.718
-1.045,0.383,0.589,82.658,-67.255,-97.923
-1.014,0.372,0.604,85.604,-70.007,-102.780
-0.980,0.362,0.621,88.931,-72.925,-107.361
-0.943,0.351,0.637,92.189,-76.188,-111.817
-0.904,0.339,0.653,94.990,-79.954,-116.442
-0.864,0.327,0.669,97.297,-84.357,-121.144
-0.822,0.315,0.685,99.470,-89.448,-125.822
-0.777,0.303,0.704,102.052,-94.421,-130.286
-0.732,0.294,0.724,105.020,-98.691,-134.358
-0.685,0.289,0.743,108.078,-101.638,-137.928
-0.638,0.283,0.760,110.561,-103.009,-140.789
-0.594,0.276,0.774,111.917,-102.558,-142.857
-0.553,0.267,0.786,110.993,-101.315,-143.772
-0.517,0.252,0.797,109.302,-99.647,-143.848
-0.485,0.236,0.809,107.155,-97.764,-143.149
-0.460,0.219,0.821,102.548,-95.841,-141.743
-0.438,0.201,0.832,94.339,-93.886,-139.448
-0.420,0.183,0.841,84.549,-91.630,-136.771
-0.404,0.168,0.845,74.604,-88.111,-134.048
-0.390,0.156,0.846,66.110,-83.663,-130.715
-0.378,0.147,0.845,61.182,-78.560,-126.105
-0.369,0.140,0.844,58.641,-73.364,-120.885
-0.362,0.135,0.843,57.709,-68.880,-115.277
-0.358,0.131,0.842,57.518,-65.362,-109.531
-0.355,0.128,0.841,58.176,-62.877,-104.107
-0.353,0.125,0.841,58.948,-61.211,-99.175
-0.351,0.122,0.842,59.401,-60.141,-94.844
-0.348,0.119,0.843,59.265,-59.198,-91.116
-0.345,0.116,0.844,58.357,-58.277,-88.083
-0.342,0.114,0.846,56.396,-57.298,-85.508
-0.338,0.112,0.849,53.261,-56.009,-83.292
-0.335,0.110,0.853,49.114,-54.406,-81.349
-0.332,0.108,0.857,44.149,-52.574,-79.484
-0.330,0.106,0.861,39.356,-50.618,-77.607
-0.329,0.102,0.864,35.262,-48.706,-75.646
-0.328,0.099,0.868,32.244,-46.935,-73.444
-0.328,0.096,0.870,30.017,-45.363,-71.048
-0.328,0.092,0.873,28.445,-44.012,-68.425
-0.328,0.089,0.875,27.352,-42.902,-65.567
-0.328,0.088,0.876,26.559,-41.887,-62.534
-0.328,0.086,0.877,25.994,-40.833,-59.356
-0.328,0.086,0.878,25.634,-39.643,-56.217
-0.327,0.085,0.880,25.341,-38.310,-53.185
-0.327,0.084,0.883,25.067,-36.832,-50.304
-0.328,0.084,0.885,24.777,-35.370,-47.616
-0.328,0.084,0.888,24.414,-34.028,-45.133
-0.330,0.084,0.891,23.889,-32.859,-42.872
-0.331,0.084,0.894,23.297,-31.816,-40.794
-0.332,0.085,0.896,22.647,-30.866,-38.878
-0.333,0.085,0.898,21.997,-29.981,-37.131
-0.335,0.085,0.901,21.329,-29.139,-35.514
-0.336,0.086,0.903,20.629,-28.318,-34.043
-0.337,0.086,0.905,19.884,-27.494,-32.669
-0.338,0.086,0.907,19.061,-26.674,-31.379
-0.338,0.086,0.909,18.173,-25.864,-30.196
-0.339,0.085,0.911,17.224,-25.026,-29.065
-0.339,0.084,0.913,16.268,-24.162,-27.984
-0.339,0.083,0.915,15.329,-23.314,-26.923
-0.339,0.081,0.916,14.435,-22.487,-25.859
-0.340,0.079,0.918,13.613,-21.690,-24.765
-0.340,0.077,0.920,12.910,-20.924,-23.581
-0.340,0.075,0.922,12.350,-20.179,-22.337
-0.341,0.073,0.923,11.921,-19.431,-21.032
-0.341,0.072,0.924,11.634,-18.624,-19.675
-0.342,0.070,0.925,11.454,-17.776,-18.302
-0.342,0.069,0.926,11.359,-16.898,-16.927
-0.342,0.068,0.926,11.261,-16.012,-15.608
-0.343,0.068,0.926,11.108,-15.132,-14.372
-0.344,0.067,0.927,10.853,-14.286,-13.243
-0.345,0.067,0.927,10.491,-13.494,-12.212
-0.346,0.066,0.928,10.032,-12.777,-11.279
-0.347,0.065,0.929,9.490,-12.129,-10.442
-0.348,0.064,0.930,8.956,-11.523,-9.677
-0.349,0.063,0.931,8.467,-10.951,-8.941
-0.350,0.062,0.931,8.003,-10.400,-8.227
-0.351,0.062,0.932,7.561,-9.867,-7.516
-0.352,0.061,0.933,7.102,-9.336,-6.817
-0.353,0.061,0.933,6.637,-8.777,-6.129
-0.353,0.060,0.933,6.169,-8.183,-5.465
-0.354,0.059,0.933,5.668,-7.603,-4.805
-0.354,0.058,0.933,5.123,-7.059,-4.149
-0.355,0.057,0.934,4.589,-6.539,-3.506

-1.119,0.221,0.578,3.979,-6.534,-3.062
-1.126,0.225,0.575,3.529,-6.516,-2.762
-1.134,0.229,0.573,3.198,-6.509,-2.583
-1.141,0.234,0.570,2.949,-6.525,-2.536
-1.146,0.238,0.567,2.828,-6.557,-2.598
-1.150,0.241,0.563,2.848,-6.606,-2.738
-1.154,0.245,0.560,2.974,-6.684,-2.982
-1.157,0.248,0.555,3.205,-6.792,-3.296
-1.159,0.251,0.551,3.491,-6.951,-3.678
-1.161,0.254,0.546,3.833,-7.163,-4.129
-1.162,0.256,0.540,4.273,-7.410,-4.653
-1.162,0.257,0.535,4.819,-7.721,-5.256
-1.162,0.258,0.530,5.408,-8.154,-5.979
-1.161,0.259,0.525,6.060,-8.708,-6.819
-1.159,0.259,0.519,6.792,-9.463,-7.754
-1.157,0.259,0.514,7.604,-10.354,-8.787
-1.155,0.260,0.509,8.468,-11.422,-9.922
-1.153,0.260,0.504,9.340,-12.696,-11.153
-1.151,0.261,0.500,10.232,-14.161,-12.510
-1.151,0.261,0.497,11.197,-15.816,-13.996
-1.149,0.261,0.496,12.350,-17.518,-15.642
-1.149,0.259,0.496,14.685,-19.242,-17.556
-1.149,0.259,0.497,16.370,-20.986,-19.671
-1.150,0.258,0.500,18.179,-22.775,-22.038
-1.152,0.257,0.504,20.069,-24.643,-24.674
-1.154,0.256,0.508,22.045,-26.583,-27.593
-1.156,0.255,0.514,24.034,-28.667,-30.763
-1.157,0.254,0.522,26.093,-30.880,-34.290
-1.158,0.253,0.532,28.210,-33.177,-38.019
-1.158,0.252,0.543,30.528,-35.656,-41.942
-1.156,0.250,0.555,33.419,-38.158,-46.093
-1.152,0.248,0.568,37.233,-40.523,-50.423
-1.147,0.248,0.581,42.457,-42.819,-55.156
-1.138,0.248,0.595,48.467,-45.153,-60.195
-1.126,0.249,0.610,55.094,-47.742,-65.670
-1.107,0.250,0.624,62.052,-50.973,-71.634
-1.083,0.250,0.640,69.167,-54.900,-78.026
-1.050,0.249,0.657,76.767,-59.248,-85.119
-1.011,0.246,0.674,84.485,-63.876,-92.579
-0.967,0.244,0.693,91.868,-68.810,-100.421
-0.917,0.243,0.714,98.732,-73.917,-108.459
-0.862,0.242,0.735,104.958,-78.686,-116.419
-0.806,0.241,0.756,109.824,-82.837,-124.202
-0.749,0.237,0.776,112.942,-86.106,-131.244
-0.693,0.232,0.795,113.895,-88.226,-137.184
-0.643,0.224,0.812,112.681,-88.814,-141.835
-0.598,0.209,0.830,110.543,-88.423,-144.943
-0.559,0.182,0.848,101.506,-87.197,-145.122
-0.525,0.152,0.865,84.352,-85.482,-143.298
-0.496,0.124,0.877,61.053,-81.882,-140.483
-0.470,0.103,0.879,38.679,-74.449,-136.898
-0.449,0.088,0.877,23.551,-64.708,-130.721
-0.433,0.080,0.873,16.596,-53.923,-121.804
-0.419,0.077,0.867,16.166,-43.924,-111.443
-0.408,0.077,0.859,18.076,-36.163,-100.305
-0.400,0.080,0.850,23.186,-31.728,-89.389
-0.394,0.083,0.840,30.445,-29.317,-79.580
-0.389,0.085,0.831,37.792,-28.215,-71.862
-0.384,0.086,0.825,42.273,-27.874,-65.930
-0.379,0.086,0.821,43.924,-27.935,-61.681
-0.375,0.086,0.818,43.731,-27.680,-58.858
-0.371,0.088,0.817,41.948,-27.738,-57.051
-0.367,0.091,0.817,38.173,-27.519,-55.913
-0.362,0.093,0.818,32.257,-27.026,-55.239
-0.359,0.093,0.821,25.869,-26.359,-54.662
-0.356,0.092,0.824,20.072,-25.708,-54.075
-0.354,0.090,0.826,15.442,-25.174,-53.349
-0.353,0.088,0.828,12.120,-24.762,-52.377
-0.351,0.086,0.830,10.376,-24.425,-50.905
-0.349,0.083,0.831,9.579,-24.102,-48.967
-0.347,0.081,0.831,9.429,-23.749,-46.567
-0.346,0.079,0.831,9.625,-23.349,-43.766
-0.344,0.077,0.832,10.005,-22.890,-40.700
-0.343,0.076,0.832,10.499,-22.366,-37.546
-0.343,0.076,0.833,11.093,-21.780,-34.519
-0.342,0.075,0.835,11.652,-21.148,-31.704
-0.342,0.076,0.837,12.084,-20.546,-29.208
-0.342,0.076,0.840,12.392,-20.035,-27.034
-0.343,0.077,0.843,12.533,-19.610,-25.216
-0.344,0.079,0.846,12.435,-19.274,-23.656
-0.345,0.081,0.849,12.216,-19.005,-22.312
-0.347,0.082,0.852,11.886,-18.822,-21.134
-0.348,0.084,0.855,11.510,-18.673,-20.089
-0.349,0.086,0.858,11.126,-18.512,-19.174
-0.351,0.087,0.861,10.705,-18.330,-18.317
-0.352,0.087,0.865,10.269,-18.147,-17.512
-0.353,0.087,0.869,9.862,-17.944,-16.746
-0.354,0.086,0.872,9.498,-17.698,-16.019
-0.355,0.085,0.876,9.134,-17.410,-15.293
-0.357,0.084,0.880,8.782,-17.097,-14.560
-0.359,0.083,0.884,8.484,-16.770,-13.836
-0.360,0.081,0.888,8.308,-16.426,-13.115
-0.362,0.080,0.891,8.218,-16.073,-12.388
-0.363,0.079,0.894,8.202,-15.723,-11.637
-0.363,0.078,0.897,8.197,-15.395,-10.881
-0.364,0.078,0.899,8.194,-15.066,-10.132
-0.364,0.077,0.902,8.170,-14.735,-9.417
-0.365,0.076,0.904,8.101,-14.402,-8.730
-0.365,0.075,0.907,7.959,-14.082,-8.095
-0.366,0.074,0.909,7.779,-13.774,-7.508
-0.366,0.073,0.912,7.558,-13.490,-6.949
-0.367,0.073,0.914,7.332,-13.234,-6.419
-0.368,0.072,0.917,7.109,-12.994,-5.944
-0.369,0.071,0.919,6.955,-12.737,-5.522
-0.370,0.071,0.920,6.846,-12.444,-5.139
-0.370,0.070,0.922,6.741,-12.129,-4.808
-0.371,0.070,0.924,6.585,-11.814,-4.519
-0.371,0.069,0.926,6.337,-11.507,-4.269
-0.372,0.068,0.927,5.980,-11.216,-4.070
-0.372,0.067,0.929,5.566,-10.960,-3.893
-0.368,0.066,0.930,5.094,-10.765,-3.717
-0.369,0.065,0.931,4.606,-10.609,-3.550
-0.369,0.064,0.932,4.156,-10.469,-3.392
-0.369,0.063,0.933,3.763,-10.337,-3.219
-0.369,0.062,0.934,3.415,-10.192,-3.028
-0.368,0.061,0.935,3.148,-9.969,-2.839
-0.368,0.060,0.935,2.950,-9.674,-2.634
-0.367,0.059,0.936,2.733,-9.352,-2.436
-0.367,0.059,0.936,2.464,-9.048,-2.256

-0.775,0.108,1.042,0.433,-9.037,0.637
-0.779,0.124,1.039,-0.526,-9.072,3.006
-0.784,0.142,1.035,-0.590,-9.140,4.919
-0.789,0.161,1.032,-0.034,-9.215,6.361
-0.794,0.179,1.029,1.595,-9.292,7.226
-0.801,0.197,1.027,4.292,-9.351,7.678
-0.808,0.214,1.025,7.989,-9.388,7.760
-0.815,0.229,1.024,12.587,-9.402,7.554
-0.823,0.242,1.022,18.007,-9.393,7.156
-0.831,0.255,1.019,23.976,-9.387,6.603
-0.840,0.266,1.015,30.234,-9.414,5.921
-0.848,0.277,1.011,36.838,-9.515,5.172
-0.856,0.287,1.005,43.786,-9.681,4.377
-0.863,0.296,0.999,51.114,-9.906,3.531
-0.871,0.304,0.994,58.840,-10.219,2.564
-0.877,0.311,0.989,67.013,-10.544,1.487
-0.883,0.318,0.987,75.410,-10.866,0.166
-0.888,0.324,0.986,83.715,-11.173,-1.418
-0.894,0.329,0.986,91.362,-11.457,-3.237
-0.900,0.332,0.988,97.858,-11.740,-5.356
-0.906,0.334,0.991,103.011,-12.044,-7.827
-0.913,0.334,0.995,105.467,-12.376,-10.906
-0.918,0.332,0.999,108.146,-12.737,-14.434
-0.921,0.328,1.003,110.109,-13.145,-18.460
-0.923,0.325,1.007,111.445,-13.612,-22.968
-0.923,0.323,1.011,112.282,-14.118,-27.964
-0.920,0.319,1.013,112.832,-14.624,-33.421
-0.914,0.313,1.015,113.616,-15.109,-39.641
-0.906,0.308,1.016,114.580,-15.556,-46.398
-0.896,0.302,1.017,115.584,-16.029,-53.780
-0.884,0.297,1.019,116.302,-16.614,-61.904
-0.871,0.291,1.020,116.164,-17.435,-71.156
-0.855,0.284,1.021,115.313,-18.624,-81.100
-0.837,0.275,1.022,113.953,-20.402,-91.496
-0.812,0.264,1.020,112.309,-23.104,-102.236
-0.786,0.251,1.018,110.578,-26.444,-113.252
-0.754,0.236,1.016,108.910,-29.971,-124.453
-0.717,0.225,1.016,107.285,-33.817,-135.459
-0.675,0.214,1.014,105.676,-37.747,-145.470
-0.631,0.204,1.012,104.213,-41.744,-154.327
-0.585,0.195,1.009,102.910,-45.761,-162.137
-0.539,0.186,1.006,101.680,-49.822,-168.932
-0.493,0.173,1.005,100.427,-54.094,-174.470
-0.448,0.162,1.005,99.197,-58.609,-178.949
-0.403,0.150,1.007,98.153,-63.219,-182.307
-0.357,0.138,1.007,97.565,-67.474,-184.420
-0.313,0.129,1.008,97.363,-70.961,-185.378
-0.271,0.124,1.008,96.461,-73.236,-184.980
-0.234,0.119,1.006,95.677,-74.308,-183.632
-0.201,0.112,1.003,94.362,-74.236,-181.426
-0.174,0.103,1.001,92.510,-73.576,-178.336
-0.152,0.089,1.001,87.987,-72.483,-174.524
-0.134,0.075,1.001,80.833,-71.134,-170.676
-0.121,0.063,1.001,71.671,-69.015,-166.961
-0.110,0.055,0.998,62.767,-65.870,-161.546
-0.103,0.050,0.994,57.837,-62.324,-154.657
-0.098,0.049,0.988,55.336,-58.764,-147.464
-0.095,0.049,0.984,54.782,-55.508,-140.307
-0.093,0.050,0.980,55.412,-53.028,-133.322
-0.093,0.053,0.975,57.351,-51.225,-126.739
-0.094,0.055,0.971,59.906,-49.968,-120.638
-0.094,0.057,0.968,61.803,-49.068,-115.079
-0.095,0.059,0.966,62.517,-48.333,-110.102
-0.095,0.060,0.965,62.144,-47.624,-105.575
-0.095,0.060,0.964,60.982,-46.857,-101.494
-0.094,0.061,0.963,58.001,-45.880,-97.861
-0.093,0.063,0.962,53.698,-44.622,-94.604
-0.093,0.065,0.963,48.645,-43.196,-91.700
-0.093,0.067,0.964,43.571,-41.646,-88.948
-0.094,0.068,0.965,38.986,-40.184,-86.287
-0.095,0.069,0.967,35.169,-38.893,-83.598
-0.097,0.069,0.968,32.491,-37.783,-80.721
-0.099,0.069,0.969,30.612,-36.805,-77.692
-0.101,0.068,0.970,29.393,-35.922,-74.490
-0.102,0.066,0.971,28.640,-35.089,-71.175
-0.103,0.065,0.971,28.138,-34.267,-67.823
-0.105,0.066,0.971,27.731,-33.413,-64.454
-0.106,0.066,0.971,27.338,-32.517,-61.228
-0.107,0.067,0.971,26.933,-31.564,-58.182
-0.108,0.068,0.972,26.457,-30.585,-55.324
-0.109,0.070,0.974,25.863,-29.647,-52.653
-0.111,0.072,0.975,25.092,-28.773,-50.219
-0.112,0.075,0.977,24.268,-27.961,-47.967
-0.114,0.077,0.978,23.477,-27.193,-45.894
-0.117,0.079,0.980,22.743,-26.467,-43.994
-0.119,0.082,0.981,22.061,-25.816,-42.247
-0.122,0.084,0.983,21.409,-25.227,-40.615
-0.124,0.086,0.984,20.754,-24.648,-39.155
-0.126,0.088,0.985,20.101,-24.002,-37.778
-0.128,0.089,0.987,19.435,-23.324,-36.482
-0.129,0.089,0.990,18.671,-22.649,-35.236
-0.131,0.089,0.992,17.852,-22.005,-34.015
-0.132,0.088,0.994,16.983,-21.382,-32.779
-0.133,0.088,0.996,16.125,-20.785,-31.539
-0.135,0.087,0.996,15.377,-20.155,-30.266
-0.136,0.087,0.996,14.841,-19.449,-29.010
-0.137,0.086,0.996,14.470,-18.703,-27.794
-0.139,0.085,0.997,14.224,-17.973,-26.607
-0.141,0.084,0.997,14.071,-17.332,-25.457
-0.142,0.083,0.998,13.952,-16.792,-24.370
-0.144,0.082,0.998,13.817,-16.337,-23.357
-0.145,0.081,0.998,13.663,-15.927,-22.409
-0.146,0.080,0.997,13.472,-15.540,-21.542
-0.146,0.078,0.997,13.224,-15.146,-20.736
-0.146,0.077,0.996,12.864,-14.739,-19.977
-0.146,0.076,0.996,12.328,-14.328,-19.248
-0.146,0.074,0.997,11.558,-13.922,-18.521
-0.146,0.072,0.997,10.669,-13.519,-17.801
-0.145,0.071,0.997,9.738,-13.119,-17.059
-0.145,0.070,0.997,8.836,-12.707,-16.308
-0.145,0.069,0.997,8.039,-12.277,-15.570
-0.145,0.068,0.996,7.452,-11.842,-14.818
-0.145,0.067,0.996,7.015,-11.425,-14.090
-0.145,0.066,0.996,6.678,-11.039,-13.381
-0.145,0.066,0.996,6.379,-10.719,-12.700
-0.146,0.065,0.995,6.080,-10.449,-12.054
-0.146,0.065,0.995,5.706,-10.224,-11.447
-0.146,0.065,0.995,5.254,-10.028,-10.867
-0.147,0.065,0.995,4.740,-9.854,-10.309

-0.587,-0.292,1.027,-1.819,-10.256,-3.720
-0.594,-0.290,1.028,-8.725,-10.692,3.096
-0.600,-0.285,1.026,-14.918,-11.123,9.900
-0.609,-0.282,1.019,-19.115,-11.551,16.203
-0.615,-0.270,1.012,-21.328,-11.854,22.319
-0.628,-0.263,1.001,-21.532,-12.282,26.723
-0.625,-0.243,1.000,-23.228,-12.990,31.191
-0.636,-0.229,0.999,-26.156,-13.732,35.454
-0.646,-0.219,0.993,-28.053,-14.478,39.058
-0.654,-0.202,0.988,-28.998,-15.268,41.742
-0.662,-0.182,0.986,-29.800,-16.003,43.943
-0.671,-0.163,0.984,-30.279,-16.627,45.707
-0.678,-0.145,0.981,-30.048,-17.165,46.985
-0.686,-0.125,0.978,-28.785,-17.596,47.611
-0.692,-0.102,0.974,-27.467,-17.892,47.850
-0.698,-0.079,0.969,-25.705,-18.044,47.658
-0.705,-0.055,0.966,-23.138,-18.105,47.071
-0.713,-0.032,0.964,-19.870,-18.077,45.994
-0.721,-0.010,0.963,-15.750,-17.971,44.641
-0.729,0.009,0.964,-11.266,-17.804,43.104
-0.737,0.026,0.967,-6.636,-17.586,41.463
-0.745,0.041,0.970,-1.763,-17.339,39.774
-0.753,0.055,0.973,3.673,-17.069,38.056
-0.761,0.067,0.975,9.272,-16.806,36.354
-0.768,0.080,0.975,14.971,-16.541,34.677
-0.776,0.092,0.974,20.804,-16.248,32.913
-0.783,0.103,0.970,27.082,-15.906,31.076
-0.791,0.112,0.967,33.888,-15.556,29.167
-0.799,0.120,0.966,41.597,-15.242,27.156
-0.807,0.128,0.967,49.380,-14.969,25.043
-0.816,0.134,0.970,56.918,-14.739,22.822
-0.825,0.140,0.975,64.185,-14.552,20.445
-0.834,0.145,0.982,71.112,-14.414,17.841
-0.843,0.150,0.988,77.624,-14.269,14.914
-0.854,0.156,0.994,83.552,-14.080,11.319
-0.864,0.163,0.999,88.893,-13.810,7.118
-0.873,0.169,1.003,93.725,-13.467,2.222
-0.881,0.175,1.007,97.868,-13.024,-3.448
-0.886,0.182,1.012,101.126,-12.561,-10.009
-0.889,0.188,1.018,103.325,-12.164,-19.457
-0.888,0.193,1.022,104.383,-11.904,-28.624
-0.883,0.196,1.027,104.746,-11.832,-38.903
-0.872,0.196,1.030,104.671,-12.010,-50.200
-0.858,0.193,1.032,104.356,-12.410,-62.446
-0.840,0.187,1.032,104.027,-13.075,-75.282
-0.817,0.183,1.032,103.472,-14.109,-88.666
-0.791,0.178,1.030,102.581,-15.620,-102.197
-0.761,0.172,1.029,101.480,-17.591,-115.758
-0.725,0.166,1.025,100.207,-20.288,-129.242
-0.685,0.158,1.020,98.812,-23.458,-141.740
-0.640,0.146,1.016,97.374,-27.064,-153.494
-0.592,0.134,1.012,95.981,-31.130,-164.252
-0.543,0.122,1.008,94.662,-35.729,-173.923
-0.490,0.108,1.007,93.587,-41.078,-182.376
-0.436,0.096,1.007,92.970,-46.570,-189.454
-0.381,0.087,1.008,93.153,-51.838,-195.120
-0.327,0.080,1.008,93.804,-56.600,-199.283
-0.274,0.076,1.009,94.461,-60.477,-202.035
-0.224,0.071,1.009,94.641,-62.983,-203.133
-0.180,0.063,1.007,93.973,-64.533,-202.473
-0.144,0.051,1.006,92.370,-65.228,-199.627
-0.113,0.034,1.004,88.578,-65.075,-195.504
-0.088,0.014,1.003,81.756,-64.024,-190.917
-0.070,-0.004,1.001,72.130,-61.929,-186.697
-0.055,-0.017,0.997,63.923,-58.492,-178.495
-0.043,-0.021,0.991,57.819,-54.135,-168.800
-0.034,-0.022,0.983,55.595,-49.645,-158.759
-0.029,-0.019,0.977,55.458,-45.804,-149.152
-0.026,-0.014,0.970,58.006,-43.002,-140.383
-0.025,-0.008,0.964,61.647,-41.306,-132.508
-0.026,-0.001,0.958,64.768,-40.659,-125.525
-0.028,0.005,0.953,66.520,-40.285,-119.489
-0.030,0.009,0.948,66.782,-40.009,-114.277
-0.031,0.012,0.946,65.689,-39.686,-109.789
-0.032,0.014,0.943,63.080,-39.252,-105.960
-0.033,0.017,0.942,58.919,-38.541,-102.733
-0.034,0.020,0.942,53.343,-37.692,-99.956
-0.035,0.022,0.945,46.716,-36.808,-97.339
-0.037,0.025,0.948,40.550,-35.968,-94.720
-0.040,0.027,0.951,35.618,-35.196,-92.017
-0.043,0.027,0.954,32.099,-34.486,-89.143
-0.045,0.027,0.957,30.297,-33.826,-85.832
-0.047,0.026,0.959,29.398,-33.209,-82.257
-0.049,0.025,0.962,29.025,-32.622,-78.448
-0.051,0.025,0.963,28.918,-32.036,-74.557
-0.053,0.026,0.964,28.937,-31.424,-70.716
-0.054,0.027,0.965,28.953,-30.792,-67.039
-0.056,0.028,0.967,28.903,-30.115,-63.632
-0.059,0.030,0.969,28.703,-29.433,-60.501
-0.062,0.032,0.971,28.308,-28.765,-57.746
-0.065,0.035,0.974,27.621,-28.115,-55.288
-0.068,0.038,0.976,26.767,-27.497,-53.061
-0.071,0.041,0.979,25.809,-26.907,-51.009
-0.073,0.043,0.982,24.765,-26.327,-49.077
-0.076,0.045,0.985,23.764,-25.743,-47.259
-0.078,0.047,0.988,22.834,-25.170,-45.508
-0.080,0.049,0.991,21.955,-24.587,-43.819
-0.081,0.050,0.993,21.119,-23.988,-42.189
-0.083,0.051,0.995,20.295,-23.384,-40.622
-0.085,0.052,0.998,19.453,-22.778,-39.094
-0.087,0.052,1.000,18.632,-22.155,-37.632
-0.089,0.053,1.002,17.870,-21.505,-36.213
-0.091,0.053,1.004,17.144,-20.845,-34.832
-0.093,0.053,1.007,16.445,-20.220,-33.459
-0.095,0.053,1.009,15.779,-19.617,-32.112
-0.096,0.054,1.010,15.168,-18.980,-30.795
-0.098,0.055,1.011,14.581,-18.300,-29.510
-0.099,0.055,1.012,14.043,-17.595,-28.283
-0.101,0.056,1.013,13.606,-16.938,-27.131
-0.103,0.056,1.014,13.220,-16.358,-26.036
-0.104,0.056,1.014,12.902,-15.825,-25.054
-0.105,0.057,1.014,12.667,-15.290,-24.145
-0.106,0.057,1.015,12.481,-14.739,-23.279
-0.107,0.057,1.015,12.291,-14.188,-22.421
-0.108,0.056,1.016,12.061,-13.657,-21.564
-0.109,0.056,1.017,11.795,-13.166,-20.701
-0.110,0.055,1.017,11.484,-12.694,-19.840
-0.111,0.055,1.017,11.164,-12.226,-18.989
-0.112,0.056,1.017,10.836,-11.761,-18.147

-0.899,0.437,0.600,8.922,-12.572,-12.744
-0.905,0.450,0.604,7.153,-13.486,-8.007
-0.911,0.464,0.609,5.675,-14.429,-3.930
-0.919,0.478,0.615,4.568,-15.337,-0.523
-0.927,0.494,0.620,3.977,-16.142,1.999
-0.938,0.511,0.625,3.706,-16.847,3.665
-0.951,0.529,0.629,3.702,-17.422,4.643
-0.963,0.547,0.634,3.891,-17.811,5.033
-0.975,0.564,0.639,4.247,-18.087,4.948
-0.985,0.580,0.644,4.763,-18.285,4.413
-0.993,0.595,0.649,5.517,-18.452,3.673
-0.999,0.609,0.653,6.442,-18.632,2.772
-1.005,0.622,0.656,7.467,-18.876,1.503
-1.009,0.634,0.657,8.593,-19.204,-0.221
-1.013,0.645,0.657,9.735,-19.639,-2.438
-1.016,0.655,0.657,10.821,-20.163,-5.464
-1.018,0.664,0.657,11.868,-20.817,-9.108
-1.020,0.672,0.657,12.914,-21.653,-13.427
-1.021,0.677,0.657,14.000,-22.663,-18.419
-1.020,0.681,0.657,15.391,-23.924,-24.333
-1.018,0.682,0.657,17.026,-25.461,-30.860
-1.014,0.681,0.657,18.957,-27.306,-38.010
-1.009,0.679,0.658,21.218,-29.634,-45.618
-1.004,0.676,0.658,23.742,-32.260,-53.661
-0.997,0.674,0.660,26.214,-35.215,-62.308
-0.990,0.671,0.661,28.503,-38.466,-71.282
-0.983,0.668,0.663,30.538,-42.146,-80.766
-0.972,0.662,0.667,32.397,-46.124,-90.785
-0.958,0.654,0.672,34.067,-50.514,-101.607
-0.941,0.642,0.682,35.695,-55.110,-112.856
-0.918,0.626,0.691,37.323,-59.874,-124.424
-0.890,0.607,0.703,39.295,-65.238,-135.898
-0.854,0.589,0.716,41.596,-70.934,-146.887
-0.814,0.572,0.730,44.021,-76.941,-157.418
-0.769,0.556,0.743,46.671,-82.733,-167.985
-0.722,0.542,0.756,49.585,-87.982,-178.198
-0.670,0.529,0.770,52.599,-92.409,-187.910
-0.616,0.516,0.784,55.521,-96.177,-196.893
-0.561,0.502,0.799,58.250,-99.239,-204.977
-0.505,0.485,0.814,60.714,-101.575,-211.837
-0.448,0.467,0.827,62.634,-103.321,-216.807
-0.396,0.450,0.840,63.431,-104.274,-219.809
-0.349,0.433,0.849,62.966,-104.486,-220.705
-0.309,0.414,0.857,60.905,-103.904,-218.889
-0.275,0.387,0.863,53.636,-102.549,-215.055
-0.248,0.357,0.874,40.793,-100.488,-209.972
-0.229,0.327,0.881,21.987,-97.154,-205.165
-0.214,0.302,0.885,0.669,-91.600,-198.428
-0.201,0.285,0.885,-14.998,-84.621,-188.535
-0.191,0.271,0.886,-22.513,-77.318,-178.351
-0.182,0.261,0.887,-23.811,-70.807,-168.650
-0.177,0.256,0.889,-22.552,-65.730,-159.639
-0.174,0.254,0.890,-17.704,-62.257,-151.515
-0.173,0.254,0.891,-11.021,-60.185,-144.102
-0.173,0.252,0.891,-4.130,-59.219,-137.394
-0.173,0.249,0.890,1.528,-58.487,-131.448
-0.172,0.244,0.890,4.545,-57.898,-126.294
-0.172,0.238,0.889,5.593,-57.286,-121.701
-0.171,0.235,0.888,5.274,-56.501,-117.525
-0.170,0.235,0.889,2.657,-55.246,-113.745
-0.168,0.233,0.890,-2.143,-53.446,-110.322
-0.165,0.230,0.892,-7.929,-51.318,-107.379
-0.162,0.225,0.896,-13.792,-49.144,-104.656
-0.161,0.220,0.900,-18.475,-47.173,-101.998
-0.161,0.215,0.904,-21.698,-45.495,-99.354
-0.161,0.210,0.908,-23.093,-44.105,-96.526
-0.161,0.204,0.911,-23.407,-42.956,-93.467
-0.161,0.198,0.912,-22.951,-41.961,-90.134
-0.161,0.191,0.913,-22.066,-41.018,-86.568
-0.161,0.185,0.914,-20.987,-40.066,-82.709
-0.161,0.180,0.916,-19.830,-39.077,-78.793
-0.160,0.175,0.917,-18.695,-37.988,-74.922
-0.160,0.170,0.918,-17.604,-36.845,-71.182
-0.159,0.165,0.920,-16.584,-35.657,-67.608
-0.159,0.161,0.921,-15.646,-34.489,-64.256
-0.159,0.157,0.924,-14.810,-33.419,-61.137
-0.159,0.154,0.928,-14.065,-32.463,-58.232
-0.159,0.150,0.930,-13.334,-31.588,-55.521
-0.159,0.148,0.933,-12.602,-30.737,-52.981
-0.160,0.146,0.935,-11.898,-29.896,-50.617
-0.161,0.144,0.938,-11.231,-29.086,-48.417
-0.162,0.142,0.941,-10.648,-28.310,-46.356
-0.163,0.140,0.943,-10.154,-27.544,-44.446
-0.164,0.139,0.944,-9.789,-26.756,-42.659
-0.165,0.137,0.946,-9.560,-25.944,-40.996
-0.166,0.134,0.948,-9.412,-25.138,-39.431
-0.167,0.132,0.951,-9.345,-24.363,-37.941
-0.168,0.129,0.954,-9.300,-23.643,-36.493
-0.168,0.125,0.957,-9.201,-23.009,-35.064
-0.169,0.122,0.959,-9.010,-22.444,-33.641
-0.170,0.119,0.960,-8.735,-21.875,-32.250
-0.170,0.117,0.961,-8.402,-21.281,-30.892
-0.170,0.114,0.962,-8.008,-20.687,-29.555
-0.171,0.111,0.964,-7.598,-20.109,-28.245
-0.171,0.109,0.966,-7.221,-19.565,-26.965
-0.172,0.108,0.968,-6.930,-19.075,-25.757
-0.173,0.107,0.969,-6.728,-18.642,-24.621
-0.173,0.105,0.970,-6.502,-18.221,-23.596
-0.174,0.104,0.970,-6.223,-17.765,-22.675
-0.174,0.102,0.971,-5.917,-17.266,-21.785
-0.174,0.100,0.973,-5.593,-16.742,-20.937
-0.175,0.098,0.975,-5.316,-16.228,-20.096
-0.175,0.097,0.976,-5.101,-15.714,-19.234
-0.175,0.096,0.978,-4.955,-15.198,-18.355
-0.176,0.095,0.979,-4.873,-14.668,-17.420
-0.175,0.094,0.980,-4.812,-14.114,-16.429
-0.175,0.091,0.981,-4.742,-13.488,-15.385
-0.174,0.089,0.983,-4.660,-12.818,-14.282
-0.174,0.087,0.985,-4.566,-12.132,-13.084
-0.174,0.085,0.987,-4.443,-11.455,-11.848
-0.174,0.083,0.988,-4.292,-10.770,-10.592
-0.174,0.082,0.989,-4.092,-10.100,-9.337
-0.174,0.081,0.990,-3.836,-9.463,-8.109
-0.174,0.080,0.990,-3.569,-8.861,-6.934
-0.174,0.079,0.991,-3.315,-8.296,-5.829
-0.174,0.079,0.991,-3.095,-7.767,-4.771
-0.174,0.079,0.992,-2.992,-7.267,-3.748
-0.174,0.079,0.993,-3.005,-6.792,-2.754
-0.173,0.079,0.994,-3.170,-6.328,-1.771

-0.461,0.465,1.054,-16.683,-8.467,-0.740
-0.488,0.501,1.068,-23.775,-10.703,-0.540
-0.515,0.537,1.082,-25.593,-12.904,-0.883
-0.541,0.571,1.097,-24.732,-14.937,-1.566
-0.565,0.605,1.111,-22.280,-16.809,-2.813
-0.589,0.637,1.123,-16.919,-18.487,-4.581
-0.612,0.666,1.132,-10.143,-19.917,-7.044
-0.632,0.691,1.138,-2.590,-21.236,-10.306
-0.650,0.713,1.141,5.288,-22.415,-14.475
-0.666,0.731,1.142,13.159,-23.438,-19.253
-0.680,0.745,1.141,20.508,-24.350,-24.544
-0.692,0.755,1.139,27.637,-25.171,-30.039
-0.702,0.760,1.134,34.736,-25.955,-35.599
-0.710,0.762,1.129,41.981,-26.790,-41.282
-0.717,0.761,1.123,49.135,-27.725,-46.909
-0.723,0.759,1.117,56.029,-28.918,-52.576
-0.728,0.755,1.111,62.699,-30.271,-58.573
-0.732,0.749,1.107,68.557,-31.722,-64.747
-0.736,0.741,1.105,73.242,-33.235,-71.027
-0.737,0.731,1.106,76.891,-34.837,-77.410
-0.737,0.718,1.109,79.705,-36.461,-84.087
-0.735,0.701,1.114,81.545,-38.039,-91.324
-0.731,0.682,1.120,82.928,-39.576,-98.728
-0.725,0.663,1.126,84.074,-41.040,-106.256
-0.717,0.643,1.132,84.938,-42.353,-113.785
-0.708,0.622,1.136,85.675,-43.447,-121.700
-0.696,0.601,1.140,86.385,-44.261,-129.589
-0.680,0.579,1.143,87.054,-44.682,-137.320
-0.661,0.557,1.147,87.581,-44.952,-144.844
-0.639,0.535,1.150,87.790,-45.145,-152.215
-0.616,0.514,1.153,87.662,-45.380,-159.332
-0.591,0.493,1.156,87.055,-45.738,-166.158
-0.563,0.470,1.157,86.083,-46.274,-172.682
-0.534,0.447,1.158,84.910,-46.950,-178.849
-0.503,0.422,1.158,83.657,-47.813,-184.438
-0.471,0.398,1.156,82.422,-48.835,-189.521
-0.439,0.377,1.152,81.196,-49.966,-194.264
-0.408,0.359,1.146,79.954,-51.073,-198.533
-0.376,0.344,1.139,78.705,-52.116,-202.194
-0.344,0.330,1.131,77.501,-53.153,-205.374
-0.306,0.316,1.124,76.416,-54.350,-208.218
-0.272,0.300,1.117,75.603,-55.694,-210.646
-0.237,0.283,1.111,75.320,-57.175,-212.283
-0.202,0.267,1.105,75.518,-58.788,-213.144
-0.168,0.251,1.100,76.197,-60.498,-213.117
-0.135,0.236,1.096,77.138,-62.085,-212.109
-0.106,0.223,1.092,77.496,-63.316,-209.694
-0.080,0.210,1.088,76.956,-63.964,-206.326
-0.058,0.195,1.084,75.684,-63.702,-202.179
-0.040,0.177,1.079,72.195,-62.824,-197.612
-0.026,0.158,1.072,65.713,-61.138,-193.581
-0.016,0.142,1.066,56.201,-58.168,-187.222
-0.008,0.129,1.061,46.905,-54.093,-179.158
-0.001,0.118,1.056,40.158,-49.219,-170.366
0.004,0.110,1.052,36.496,-44.454,-161.541
0.007,0.105,1.047,35.113,-40.279,-153.071
0.008,0.104,1.042,35.128,-37.077,-145.276
0.009,0.104,1.036,35.659,-34.856,-138.108
0.008,0.104,1.030,36.312,-33.455,-131.606
0.006,0.103,1.024,36.759,-32.737,-125.730
0.004,0.101,1.018,36.800,-32.256,-120.356
0.001,0.098,1.013,36.316,-31.858,-115.423
-0.001,0.097,1.009,34.644,-31.414,-110.734
-0.003,0.096,1.006,31.971,-30.770,-106.323
-0.004,0.095,1.003,28.668,-29.961,-102.109
-0.006,0.094,1.001,25.219,-29.026,-98.133
-0.008,0.093,1.001,22.144,-27.994,-94.382
-0.010,0.091,1.001,19.718,-26.896,-90.765
-0.012,0.089,1.003,17.987,-25.830,-87.208
-0.015,0.087,1.004,16.881,-24.883,-83.682
-0.018,0.085,1.005,16.885,-24.073,-80.081
-0.021,0.084,1.005,16.610,-23.401,-76.526
-0.024,0.083,1.005,16.463,-22.831,-73.018
-0.027,0.082,1.004,16.410,-22.363,-69.626
-0.030,0.082,1.004,16.397,-21.928,-66.374
-0.033,0.081,1.004,16.352,-21.487,-63.383
-0.036,0.080,1.004,16.253,-21.026,-60.604
-0.039,0.079,1.005,16.097,-20.524,-58.035
-0.041,0.078,1.006,15.847,-19.974,-55.633
-0.043,0.077,1.007,15.472,-19.419,-53.360
-0.045,0.076,1.009,14.967,-18.855,-51.199
-0.047,0.075,1.010,14.406,-18.283,-49.122
-0.049,0.073,1.012,13.872,-17.695,-47.094
-0.051,0.071,1.013,13.431,-17.113,-45.096
-0.054,0.070,1.014,13.113,-16.561,-43.188
-0.056,0.069,1.015,12.902,-16.013,-41.358
-0.059,0.068,1.017,12.766,-15.476,-39.591
-0.061,0.067,1.017,12.677,-14.961,-37.887
-0.064,0.066,1.018,12.574,-14.483,-36.242
-0.067,0.066,1.019,12.416,-14.018,-34.721
-0.070,0.065,1.020,12.218,-13.530,-33.336
-0.073,0.064,1.021,12.043,-13.000,-32.068
-0.075,0.063,1.022,11.842,-12.453,-30.887
-0.078,0.062,1.023,11.491,-11.908,-29.777
-0.080,0.061,1.024,11.014,-11.382,-28.711
-0.083,0.060,1.024,10.521,-10.913,-27.723
-0.085,0.060,1.024,10.050,-10.480,-26.809
-0.087,0.059,1.024,9.687,-10.045,-25.968
-0.089,0.057,1.024,9.455,-9.618,-25.164
-0.091,0.056,1.025,9.253,-9.202,-24.359
-0.093,0.055,1.025,9.067,-8.812,-23.542
-0.095,0.053,1.024,8.921,-8.491,-22.721
-0.098,0.052,1.024,8.815,-8.205,-21.945
-0.100,0.051,1.023,8.746,-7.916,-21.249
-0.102,0.050,1.022,8.704,-7.609,-20.591
-0.103,0.049,1.022,8.649,-7.282,-19.971
-0.105,0.048,1.021,8.543,-6.961,-19.382
-0.107,0.046,1.021,8.374,-6.676,-18.806
-0.108,0.045,1.020,8.100,-6.448,-18.242
-0.110,0.043,1.020,7.759,-6.252,-17.702
-0.112,0.042,1.018,7.376,-6.082,-17.181
-0.113,0.040,1.018,6.987,-5.923,-16.679
-0.114,0.039,1.017,6.637,-5.758,-16.193
-0.116,0.038,1.016,6.330,-5.595,-15.699
-0.117,0.037,1.015,6.061,-5.428,-15.224
-0.118,0.036,1.014,5.834,-5.253,-14.765
-0.120,0.031,1.013,5.645,-5.062,-14.304
-0.120,0.030,1.012,5.478,-4.867,-13.837
-0.121,0.029,1.012,5.299,-4.691,-13.362

-0.795,0.458,0.695,-0.694,-6.521,-2.753
-0.802,0.478,0.700,-6.345,-8.779,6.199
-0.809,0.500,0.709,-11.405,-11.332,13.371
-0.815,0.526,0.718,-15.563,-13.939,19.020
-0.822,0.552,0.730,-18.317,-16.365,22.690
-0.828,0.580,0.744,-19.707,-18.442,24.867
-0.835,0.609,0.759,-19.869,-19.979,25.779
-0.842,0.638,0.775,-19.185,-21.039,24.976
-0.852,0.668,0.791,-17.881,-21.663,23.886
-0.861,0.696,0.806,-15.699,-21.940,22.445
-0.871,0.722,0.820,-12.595,-21.903,20.524
-0.880,0.746,0.832,-8.607,-21.714,17.666
-0.888,0.767,0.842,-3.748,-21.442,13.503
-0.895,0.784,0.851,1.470,-21.159,8.627
-0.901,0.798,0.858,6.859,-20.942,3.094
-0.905,0.810,0.863,12.243,-20.809,-3.113
-0.908,0.819,0.867,17.502,-20.752,-10.004
-0.910,0.826,0.870,22.655,-20.778,-17.840
-0.912,0.830,0.872,27.576,-20.911,-26.268
-0.913,0.831,0.873,32.158,-21.216,-35.263
-0.914,0.832,0.873,36.266,-21.662,-44.513
-0.914,0.831,0.872,38.687,-22.232,-54.423
-0.914,0.828,0.870,41.779,-22.927,-64.664
-0.912,0.824,0.868,44.633,-23.726,-75.248
-0.908,0.817,0.866,47.317,-24.667,-86.020
-0.902,0.808,0.864,49.858,-25.719,-97.036
-0.894,0.798,0.863,52.147,-26.908,-108.820
-0.884,0.787,0.863,54.101,-28.213,-121.029
-0.871,0.774,0.863,55.766,-29.789,-133.577
-0.855,0.760,0.865,57.445,-31.699,-146.304
-0.836,0.743,0.867,59.316,-34.067,-159.419
-0.812,0.723,0.870,61.572,-37.004,-173.057
-0.786,0.701,0.872,64.160,-40.516,-186.106
-0.753,0.677,0.874,66.860,-44.862,-198.320
-0.717,0.653,0.877,69.212,-49.964,-209.591
-0.677,0.627,0.879,70.824,-55.848,-219.781
-0.632,0.599,0.882,71.603,-62.620,-228.917
-0.582,0.573,0.887,71.847,-70.453,-236.852
-0.528,0.545,0.892,71.982,-78.296,-243.480
-0.471,0.518,0.900,72.297,-85.407,-248.562
-0.413,0.494,0.909,73.149,-90.925,-252.278
-0.354,0.471,0.919,74.525,-93.978,-254.517
-0.299,0.450,0.929,76.227,-95.137,-255.048
-0.250,0.429,0.935,77.213,-94.779,-253.257
-0.209,0.406,0.936,77.119,-93.510,-249.861
-0.175,0.379,0.934,76.104,-91.810,-244.953
-0.149,0.350,0.933,73.790,-90.072,-239.138
-0.130,0.321,0.934,66.963,-88.087,-233.202
-0.117,0.296,0.936,55.916,-85.531,-228.279
-0.109,0.275,0.937,42.635,-81.971,-220.298
-0.103,0.261,0.934,30.995,-77.864,-210.148
-0.099,0.250,0.929,23.431,-73.572,-199.700
-0.095,0.243,0.926,21.023,-69.482,-189.930
-0.092,0.238,0.924,21.021,-65.820,-181.090
-0.092,0.234,0.922,22.640,-63.028,-173.295
-0.094,0.232,0.922,25.585,-61.039,-166.436
-0.096,0.230,0.922,28.871,-59.728,-160.339
-0.098,0.225,0.922,31.432,-58.820,-154.632
-0.101,0.220,0.923,32.749,-58.065,-149.155
-0.102,0.215,0.925,32.938,-57.335,-143.898
-0.103,0.211,0.925,31.431,-56.534,-138.814
-0.104,0.207,0.925,28.898,-55.559,-133.919
-0.104,0.203,0.926,25.143,-54.221,-129.338
-0.103,0.199,0.928,20.670,-52.357,-125.132
-0.103,0.194,0.930,15.886,-50.266,-121.208
-0.104,0.189,0.934,11.530,-48.155,-117.503
-0.105,0.184,0.938,7.982,-46.197,-113.893
-0.108,0.179,0.942,5.235,-44.597,-110.280
-0.111,0.175,0.946,3.229,-43.285,-106.567
-0.114,0.170,0.950,1.886,-42.191,-102.720
-0.116,0.165,0.953,1.340,-41.221,-98.660
-0.119,0.161,0.955,1.250,-40.315,-94.553
-0.121,0.157,0.957,1.449,-39.379,-90.533
-0.122,0.154,0.958,1.817,-38.366,-86.632
-0.124,0.151,0.959,2.309,-37.264,-82.985
-0.125,0.147,0.960,2.810,-36.104,-79.471
-0.126,0.143,0.962,3.263,-34.914,-76.085
-0.128,0.140,0.965,3.586,-33.770,-72.795
-0.130,0.137,0.967,3.696,-32.684,-69.705
-0.132,0.134,0.970,3.656,-31.654,-66.791
-0.134,0.132,0.972,3.484,-30.690,-64.032
-0.137,0.129,0.974,3.222,-29.790,-61.428
-0.139,0.126,0.976,2.938,-28.903,-58.956
-0.141,0.124,0.978,2.695,-27.996,-56.629
