aX,aY,aZ,gX,gY,gZ
-0.519,-0.621,0.765,-84.211,1.816,-0.858
-0.519,-0.624,0.766,-82.229,1.420,-1.813
-0.519,-0.627,0.768,-80.251,1.079,-2.754
-0.519,-0.630,0.771,-78.195,0.758,-3.700
-0.519,-0.633,0.774,-75.997,0.471,-4.683
-0.518,-0.636,0.778,-73.641,0.233,-5.708
-0.517,-0.639,0.783,-71.195,0.065,-6.759
-0.516,-0.642,0.789,-68.994,0.023,-7.762
-0.515,-0.644,0.795,-67.399,0.366,-8.710
-0.514,-0.644,0.799,-65.973,1.344,-9.640
-0.511,-0.642,0.799,-64.841,3.006,-10.576
-0.509,-0.641,0.796,-63.850,5.157,-11.586
-0.506,-0.641,0.792,-62.920,7.357,-12.668
-0.504,-0.642,0.788,-61.977,9.155,-13.783
-0.502,-0.645,0.783,-60.933,10.503,-14.919
-0.498,-0.650,0.779,-59.789,11.441,-15.993
-0.495,-0.655,0.779,-58.597,11.889,-17.020
-0.490,-0.661,0.780,-57.428,12.195,-17.943
-0.485,-0.668,0.782,-56.350,12.659,-18.696
-0.479,-0.673,0.787,-55.406,13.595,-19.335
-0.472,-0.679,0.791,-54.568,15.702,-19.916
-0.464,-0.684,0.794,-53.755,19.002,-20.470
-0.456,-0.690,0.797,-52.877,23.553,-20.970
-0.449,-0.696,0.798,-51.869,29.326,-21.400
-0.442,-0.702,0.797,-50.770,36.218,-21.709
-0.435,-0.709,0.793,-49.402,44.282,-21.849
-0.428,-0.716,0.788,-47.510,52.735,-21.820
-0.422,-0.722,0.782,-44.763,61.371,-21.618
-0.417,-0.727,0.776,-41.608,70.715,-21.363
-0.413,-0.730,0.770,-38.480,80.912,-21.030
-0.409,-0.732,0.763,-35.771,91.942,-20.618
-0.405,-0.732,0.756,-33.843,103.699,-20.182
-0.402,-0.732,0.747,-32.460,115.886,-19.732
-0.400,-0.733,0.735,-31.389,128.439,-19.287
-0.397,-0.736,0.721,-30.486,140.155,-18.852
-0.396,-0.740,0.706,-29.701,150.502,-18.382
-0.396,-0.746,0.689,-28.932,159.068,-17.827
-0.397,-0.753,0.670,-28.074,165.351,-17.134
-0.398,-0.761,0.649,-26.917,170.041,-16.264
-0.399,-0.770,0.628,-25.021,173.731,-15.205
-0.399,-0.777,0.607,-22.239,176.894,-13.988
-0.400,-0.781,0.586,-18.396,179.908,-12.625
-0.401,-0.782,0.565,-13.504,183.114,-11.247
-0.402,-0.780,0.545,-7.855,187.214,-9.984
-0.402,-0.774,0.527,-2.405,193.155,-8.898
-0.403,-0.767,0.508,2.228,198.417,-7.860
-0.408,-0.758,0.489,5.797,201.276,-6.969
-0.413,-0.750,0.469,8.213,202.478,-6.264
-0.417,-0.741,0.450,9.638,201.965,-5.714
-0.422,-0.735,0.430,10.136,200.152,-5.353
-0.427,-0.731,0.409,10.336,197.399,-5.099
-0.432,-0.730,0.386,10.477,193.820,-4.921
-0.436,-0.730,0.362,10.651,189.920,-4.775
-0.441,-0.730,0.337,11.611,185.791,-4.624
-0.446,-0.730,0.311,11.887,181.501,-4.424
-0.451,-0.730,0.286,12.161,177.057,-4.203
-0.455,-0.728,0.260,12.467,172.463,-4.035
-0.460,-0.726,0.236,12.840,167.816,-3.924
-0.464,-0.723,0.212,13.286,163.143,-3.872
-0.469,-0.720,0.189,13.782,158.439,-3.883
-0.474,-0.717,0.168,14.175,153.680,-3.912
-0.479,-0.713,0.149,14.446,148.869,-3.927
-0.484,-0.711,0.130,14.624,144.125,-3.945
-0.490,-0.708,0.110,14.768,139.509,-3.948
-0.496,-0.707,0.092,14.926,135.008,-3.929
-0.501,-0.705,0.073,15.188,130.656,-3.846
-0.506,-0.704,0.054,15.710,126.514,-3.939
-0.512,-0.702,0.038,16.214,122.525,-4.009
-0.518,-0.700,0.022,16.785,118.545,-3.935
-0.524,-0.699,0.008,17.653,114.750,-3.784
-0.529,-0.699,-0.005,18.649,111.093,-3.480
-0.535,-0.698,-0.015,19.812,107.655,-3.284
-0.539,-0.695,-0.024,20.869,104.423,-3.158
-0.544,-0.693,-0.032,21.373,101.288,-3.032
-0.550,-0.690,-0.041,21.306,98.152,-2.901
-0.556,-0.687,-0.051,21.191,95.138,-2.909
-0.561,-0.686,-0.062,20.659,92.011,-2.667
-0.567,-0.687,-0.071,20.149,88.964,-2.461
-0.572,-0.687,-0.080,19.651,86.057,-2.176
-0.576,-0.688,-0.088,19.152,83.277,-1.842
-0.581,-0.689,-0.095,18.700,80.589,-1.509
-0.587,-0.689,-0.100,18.287,77.944,-1.173
-0.592,-0.690,-0.105,17.895,75.351,-0.839
-0.597,-0.690,-0.108,17.530,72.842,-0.444
-0.601,-0.690,-0.111,17.243,70.445,-0.056
-0.605,-0.689,-0.113,17.004,68.207,0.308
-0.609,-0.689,-0.115,16.725,66.038,0.638
-0.613,-0.687,-0.113,16.438,63.953,1.248
-0.619,-0.687,-0.118,16.277,61.784,1.884
-0.625,-0.687,-0.120,16.145,59.732,2.431
-0.629,-0.687,-0.122,15.909,57.847,2.962
-0.634,-0.688,-0.124,15.640,55.943,3.413
-0.639,-0.688,-0.126,15.415,54.024,3.755
-0.644,-0.689,-0.127,15.240,52.141,4.026
-0.648,-0.688,-0.128,15.095,50.305,4.383
-0.652,-0.689,-0.127,15.035,48.539,4.864
-0.655,-0.689,-0.127,15.122,46.893,5.403
-0.659,-0.688,-0.127,15.306,45.377,5.911
-0.662,-0.686,-0.127,15.452,43.939,6.354
-0.666,-0.684,-0.127,15.498,42.538,6.686
-0.669,-0.681,-0.128,15.426,41.147,6.924
-0.672,-0.679,-0.127,15.240,39.732,7.093
-0.676,-0.677,-0.127,14.908,38.308,7.215
-0.679,-0.675,-0.126,14.499,36.894,7.335
-0.683,-0.674,-0.125,14.048,35.486,7.463
-0.685,-0.674,-0.123,13.568,34.073,7.551
-0.688,-0.673,-0.122,12.997,32.709,7.644
-0.690,-0.673,-0.122,12.347,31.391,7.822
-0.691,-0.674,-0.121,11.740,30.118,8.020
-0.692,-0.674,-0.121,11.211,28.901,8.226
-0.693,-0.673,-0.120,10.749,27.777,8.459
-0.693,-0.672,-0.120,10.349,26.760,8.709
-0.693,-0.671,-0.120,9.982,25.865,8.944
-0.693,-0.669,-0.121,9.612,25.090,9.171
-0.693,-0.668,-0.122,9.231,24.423,9.366
-0.694,-0.666,-0.124,8.850,23.800,9.540
-0.694,-0.665,-0.127,8.492,23.185,9.692
-0.695,-0.664,-0.129,8.132,22.528,9.864
-0.696,-0.663,-0.132,7.785,21.830,10.036

-0.446,-0.955,-0.505,8.574,23.518,10.577
-0.449,-0.952,-0.509,9.397,24.539,11.144
-0.451,-0.949,-0.513,10.301,25.017,11.705
-0.454,-0.945,-0.516,11.230,25.036,12.212
-0.457,-0.940,-0.519,12.056,24.562,12.655
-0.461,-0.935,-0.522,12.690,23.836,12.893
-0.464,-0.930,-0.525,13.114,22.916,13.107
-0.466,-0.927,-0.527,13.412,21.881,13.219
-0.470,-0.920,-0.530,13.321,20.843,13.652
-0.474,-0.916,-0.535,13.556,19.394,13.639
-0.475,-0.912,-0.533,13.961,17.744,14.235
-0.480,-0.912,-0.535,14.820,16.092,14.679
-0.480,-0.911,-0.528,15.568,15.167,15.708
-0.480,-0.909,-0.523,16.163,13.687,17.118
-0.486,-0.905,-0.518,16.748,10.480,17.936
-0.494,-0.897,-0.511,16.951,4.846,18.279
-0.499,-0.889,-0.499,16.649,0.597,18.265
-0.500,-0.883,-0.489,15.870,-2.541,18.174
-0.502,-0.877,-0.477,15.150,-5.016,17.930
-0.507,-0.873,-0.468,14.496,-7.439,17.621
-0.512,-0.868,-0.459,13.795,-9.735,17.395
-0.518,-0.864,-0.450,13.100,-12.008,17.322
-0.524,-0.862,-0.440,12.512,-14.259,17.456
-0.530,-0.859,-0.431,12.134,-16.255,17.644
-0.534,-0.856,-0.422,11.957,-17.829,17.799
-0.538,-0.853,-0.411,11.964,-19.180,17.881
-0.542,-0.849,-0.399,12.070,-20.381,17.862
-0.547,-0.845,-0.386,12.179,-21.452,17.747
-0.551,-0.841,-0.371,12.209,-22.415,17.619
-0.555,-0.837,-0.357,12.167,-23.252,17.508
-0.559,-0.833,-0.345,12.064,-23.970,17.393
-0.563,-0.829,-0.332,11.908,-24.553,17.254
-0.567,-0.826,-0.320,11.733,-24.995,17.093
-0.570,-0.822,-0.308,11.492,-25.371,16.936
-0.574,-0.819,-0.298,11.210,-25.654,16.780
-0.577,-0.816,-0.288,10.919,-25.899,16.586
-0.581,-0.813,-0.279,10.658,-26.116,16.349
-0.584,-0.811,-0.269,10.412,-26.305,16.079
-0.588,-0.808,-0.259,10.169,-26.456,15.805
-0.591,-0.805,-0.247,9.925,-26.582,15.527
-0.594,-0.803,-0.236,9.699,-26.662,15.231
-0.597,-0.800,-0.225,9.491,-26.668,14.920
-0.600,-0.797,-0.214,9.289,-26.605,14.608
-0.603,-0.794,-0.204,9.089,-26.497,14.290
-0.606,-0.791,-0.195,8.884,-26.394,13.973
-0.609,-0.789,-0.185,8.613,-26.294,13.659
-0.612,-0.786,-0.177,8.310,-26.156,13.339
-0.615,-0.784,-0.170,8.008,-25.969,13.003
-0.618,-0.782,-0.164,7.740,-25.781,12.634
-0.621,-0.780,-0.158,7.527,-25.612,12.238
-0.623,-0.779,-0.151,7.347,-25.499,11.835
-0.625,-0.777,-0.144,7.195,-25.409,11.436
-0.627,-0.776,-0.137,7.115,-25.290,11.033
-0.629,-0.775,-0.130,7.113,-25.137,10.620
-0.630,-0.775,-0.124,7.180,-24.953,10.210
-0.631,-0.774,-0.117,7.265,-24.764,9.826
-0.632,-0.773,-0.110,7.317,-24.593,9.470
-0.633,-0.772,-0.103,7.318,-24.420,9.148
-0.634,-0.771,-0.096,7.265,-24.247,8.838
-0.635,-0.770,-0.090,7.129,-24.086,8.529
-0.636,-0.769,-0.084,6.928,-23.931,8.230
-0.637,-0.768,-0.079,6.676,-23.766,7.956
-0.638,-0.768,-0.074,6.402,-23.609,7.698
-0.638,-0.767,-0.070,6.160,-23.483,7.462
-0.639,-0.767,-0.066,5.972,-23.389,7.236
-0.639,-0.766,-0.062,5.859,-23.329,7.029
-0.639,-0.766,-0.057,5.804,-23.279,6.836
-0.640,-0.766,-0.053,5.792,-23.222,6.660
-0.640,-0.766,-0.048,5.810,-23.154,6.493
-0.640,-0.765,-0.043,5.851,-23.087,6.333
-0.641,-0.765,-0.039,5.884,-23.032,6.180
-0.641,-0.764,-0.034,5.910,-22.997,6.037
-0.642,-0.764,-0.028,5.870,-22.983,5.903
-0.643,-0.763,-0.023,5.769,-22.983,5.774
-0.644,-0.762,-0.018,5.598,-22.971,5.653
-0.645,-0.761,-0.014,5.395,-22.953,5.534
-0.646,-0.760,-0.010,5.193,-22.955,5.420
-0.647,-0.759,-0.005,4.972,-22.996,5.307
-0.647,-0.759,0.000,4.734,-23.047,5.209
-0.647,-0.758,0.006,4.512,-23.063,5.115
-0.647,-0.758,0.011,4.302,-23.014,5.020
-0.647,-0.758,0.016,4.128,-22.887,4.926
-0.647,-0.758,0.020,3.992,-22.705,4.847
-0.647,-0.758,0.024,3.873,-22.484,4.782
-0.647,-0.757,0.028,3.752,-22.249,4.742
-0.648,-0.757,0.032,3.626,-22.024,4.717
-0.648,-0.757,0.036,3.478,-21.814,4.697
-0.649,-0.756,0.040,3.303,-21.616,4.673
-0.649,-0.756,0.044,3.116,-21.415,4.647
-0.649,-0.755,0.048,2.918,-21.183,4.628
-0.649,-0.755,0.052,2.721,-20.898,4.616
-0.648,-0.754,0.056,2.545,-20.575,4.605
-0.648,-0.754,0.060,2.395,-20.203,4.594
-0.648,-0.754,0.064,2.262,-19.794,4.582
-0.648,-0.754,0.067,2.132,-19.363,4.566
-0.648,-0.753,0.070,2.000,-18.919,4.537
-0.648,-0.753,0.073,1.854,-18.488,4.502
-0.648,-0.753,0.076,1.698,-18.062,4.459
-0.648,-0.753,0.079,1.530,-17.646,4.410
-0.648,-0.753,0.081,1.358,-17.236,4.355
-0.648,-0.753,0.084,1.173,-16.853,4.303
-0.648,-0.753,0.086,0.964,-16.458,4.260
-0.648,-0.752,0.088,0.756,-16.059,4.227
-0.649,-0.752,0.089,0.592,-15.677,4.196
-0.649,-0.752,0.091,0.455,-15.327,4.165
-0.649,-0.752,0.093,0.345,-14.997,4.133
-0.649,-0.752,0.095,0.237,-14.671,4.103
-0.649,-0.752,0.097,0.142,-14.321,4.068
-0.649,-0.752,0.098,0.063,-13.952,4.039
-0.649,-0.752,0.100,-0.006,-13.586,4.008
-0.649,-0.752,0.102,-0.086,-13.223,3.980
-0.649,-0.751,0.103,-0.213,-12.888,3.958
-0.649,-0.751,0.104,-0.390,-12.543,3.942
-0.649,-0.751,0.105,-0.612,-12.227,3.928
-0.650,-0.750,0.106,-0.878,-11.948,3.911
-0.650,-0.750,0.107,-1.163,-11.713,3.889
-0.650,-0.750,0.108,-1.472,-11.516,3.866
-0.650,-0.749,0.109,-1.785,-11.314,3.845
-0.650,-0.749,0.109,-2.063,-11.083,3.823

-0.200,-0.893,0.825,0.897,-7.577,-3.336
-0.190,-0.898,0.840,2.930,-2.125,-10.146
-0.179,-0.903,0.854,3.850,5.732,-15.891
-0.167,-0.909,0.864,4.345,16.239,-20.733
-0.154,-0.918,0.872,4.675,29.334,-24.802
-0.141,-0.930,0.876,4.977,45.068,-28.242
-0.129,-0.943,0.877,5.418,61.627,-31.186
-0.118,-0.957,0.878,6.134,78.816,-33.701
-0.106,-0.972,0.880,7.266,96.587,-35.665
-0.096,-0.987,0.880,8.884,114.497,-37.183
-0.086,-1.001,0.879,11.137,133.176,-38.238
-0.078,-1.013,0.876,14.062,151.512,-38.824
-0.072,-1.024,0.871,17.302,169.108,-38.907
-0.069,-1.031,0.866,20.377,185.285,-38.453
-0.067,-1.035,0.859,22.977,199.514,-37.795
-0.066,-1.038,0.849,25.122,211.897,-37.121
-0.064,-1.039,0.837,26.766,222.859,-36.532
-0.063,-1.040,0.823,27.850,232.334,-36.009
-0.063,-1.041,0.806,28.623,240.301,-35.594
-0.063,-1.043,0.788,29.393,247.283,-35.402
-0.064,-1.046,0.767,30.180,253.752,-35.283
-0.066,-1.048,0.745,30.934,259.591,-35.039
-0.069,-1.051,0.721,31.612,264.612,-34.664
-0.073,-1.053,0.696,32.090,268.713,-34.194
-0.078,-1.054,0.672,32.323,271.978,-33.701
-0.082,-1.054,0.645,32.422,274.239,-33.194
-0.086,-1.056,0.616,32.568,275.834,-32.681
-0.088,-1.058,0.588,32.794,276.581,-32.127
-0.091,-1.059,0.558,33.145,276.633,-31.551
-0.091,-1.060,0.526,33.709,276.144,-30.975
-0.092,-1.061,0.493,34.584,274.854,-30.378
-0.091,-1.061,0.458,35.736,272.506,-29.733
-0.091,-1.060,0.422,37.040,269.601,-29.048
-0.090,-1.058,0.387,38.284,266.000,-28.311
-0.090,-1.055,0.354,39.338,261.655,-27.544
-0.090,-1.052,0.323,40.164,256.643,-26.780
-0.090,-1.047,0.293,40.706,250.689,-26.003
-0.090,-1.043,0.265,40.944,244.294,-25.164
-0.091,-1.038,0.239,40.793,237.438,-24.219
-0.093,-1.034,0.213,40.470,230.287,-23.210
-0.095,-1.030,0.188,40.062,223.022,-22.152
-0.098,-1.026,0.164,39.588,215.655,-21.021
-0.102,-1.022,0.139,39.138,208.465,-19.849
-0.106,-1.019,0.115,38.766,201.509,-18.668
-0.110,-1.014,0.092,38.413,194.802,-17.762
-0.115,-1.010,0.072,37.982,188.365,-16.542
-0.121,-1.004,0.050,37.893,182.208,-15.498
-0.124,-0.996,0.030,37.576,176.395,-14.120
-0.133,-0.989,0.013,38.056,170.891,-13.068
-0.135,-0.983,-0.003,38.051,165.659,-11.261
-0.144,-0.979,-0.018,37.895,160.451,-9.578
-0.156,-0.972,-0.034,37.822,155.878,-8.456
-0.167,-0.964,-0.047,37.492,151.445,-7.770
-0.175,-0.956,-0.059,36.790,147.051,-7.483
-0.182,-0.949,-0.070,36.063,142.680,-7.262
-0.190,-0.944,-0.079,35.311,138.419,-6.978
-0.199,-0.940,-0.089,34.608,134.270,-6.655
-0.208,-0.936,-0.098,33.891,130.261,-6.256
-0.217,-0.931,-0.107,33.159,126.393,-5.754
-0.227,-0.927,-0.116,32.459,122.663,-5.309
-0.236,-0.922,-0.123,31.758,119.055,-4.977
-0.246,-0.917,-0.129,31.030,115.564,-4.753
-0.255,-0.913,-0.133,30.259,112.189,-4.619
-0.264,-0.909,-0.138,29.482,108.922,-4.503
-0.272,-0.907,-0.142,28.747,105.762,-4.356
-0.281,-0.904,-0.147,28.071,102.702,-4.179
-0.289,-0.902,-0.151,27.428,99.728,-3.974
-0.297,-0.900,-0.156,26.800,96.832,-3.760
-0.304,-0.898,-0.161,26.217,94.019,-3.552
-0.312,-0.895,-0.166,25.675,91.288,-3.363
-0.319,-0.893,-0.170,25.124,88.637,-3.190
-0.326,-0.891,-0.172,24.539,86.061,-3.018
-0.334,-0.889,-0.173,23.927,83.560,-2.862
-0.341,-0.887,-0.174,23.295,81.129,-2.733
-0.348,-0.886,-0.174,22.604,78.764,-2.636
-0.356,-0.884,-0.174,21.776,76.465,-2.541
-0.363,-0.883,-0.173,20.861,74.194,-2.438
-0.370,-0.882,-0.173,19.932,71.956,-2.324
-0.377,-0.881,-0.174,19.070,69.780,-2.197
-0.384,-0.880,-0.174,18.287,67.667,-2.055
-0.390,-0.879,-0.174,17.528,65.605,-1.904
-0.397,-0.878,-0.173,16.776,63.504,-1.756
-0.402,-0.878,-0.174,16.104,61.455,-1.607
-0.408,-0.878,-0.174,15.579,59.456,-1.457
-0.413,-0.878,-0.175,15.251,57.501,-1.308
-0.417,-0.879,-0.175,15.040,55.552,-1.142
-0.422,-0.879,-0.173,14.910,53.607,-0.963
-0.427,-0.878,-0.171,14.792,51.718,-0.765
-0.431,-0.878,-0.167,14.650,49.915,-0.565
-0.435,-0.877,-0.163,14.469,48.247,-0.368
-0.439,-0.876,-0.160,14.260,46.732,-0.178
-0.442,-0.875,-0.157,14.023,45.271,0.001
-0.446,-0.874,-0.153,13.727,43.861,0.199
-0.450,-0.873,-0.150,13.381,42.491,0.409
-0.454,-0.871,-0.147,12.948,41.147,0.612
-0.457,-0.870,-0.144,12.426,39.832,0.801
-0.460,-0.869,-0.142,11.912,38.564,0.962
-0.463,-0.869,-0.141,11.519,37.344,1.102
-0.466,-0.869,-0.141,11.234,36.162,1.244
-0.469,-0.869,-0.141,11.044,34.999,1.407
-0.471,-0.869,-0.139,10.944,33.841,1.593
-0.474,-0.868,-0.137,10.925,32.708,1.789
-0.476,-0.867,-0.135,10.962,31.626,1.980
-0.478,-0.866,-0.132,11.017,30.620,2.156
-0.479,-0.865,-0.131,11.041,29.694,2.325
-0.480,-0.865,-0.129,11.025,28.829,2.506
-0.482,-0.864,-0.129,10.959,28.000,2.701
-0.483,-0.863,-0.129,10.848,27.194,2.895
-0.485,-0.862,-0.130,10.670,26.393,3.087
-0.486,-0.862,-0.132,10.434,25.583,3.280
-0.487,-0.861,-0.134,10.150,24.754,3.464
-0.488,-0.861,-0.137,9.853,23.886,3.636
-0.489,-0.862,-0.141,9.547,22.937,3.824
-0.489,-0.863,-0.144,9.226,21.860,4.077
-0.489,-0.864,-0.147,8.911,20.659,4.374
-0.489,-0.866,-0.150,8.595,19.370,4.729
-0.489,-0.868,-0.153,8.252,18.015,5.169
-0.488,-0.870,-0.156,7.876,16.646,5.708
-0.488,-0.872,-0.158,7.443,15.244,6.347

-0.452,-0.561,0.894,6.372,14.834,4.991
-0.451,-0.560,0.900,5.149,14.480,3.564
-0.449,-0.560,0.907,3.883,14.231,2.073
-0.448,-0.559,0.912,2.696,14.093,0.537
-0.447,-0.560,0.916,1.777,14.125,-1.049
-0.445,-0.560,0.919,1.296,14.372,-2.765
-0.444,-0.560,0.922,1.041,14.867,-4.527
-0.444,-0.558,0.924,0.910,15.624,-6.312
-0.443,-0.556,0.925,0.845,16.744,-8.141
-0.443,-0.552,0.927,0.723,18.108,-10.020
-0.441,-0.547,0.929,0.356,19.719,-11.893
-0.441,-0.541,0.931,-0.558,21.519,-13.907
-0.440,-0.535,0.932,-1.901,23.490,-16.126
-0.440,-0.529,0.931,-3.441,25.682,-18.519
-0.440,-0.523,0.929,-4.907,27.954,-21.114
-0.440,-0.520,0.928,-6.125,30.221,-24.107
-0.439,-0.518,0.929,-7.096,32.484,-27.307
-0.439,-0.517,0.931,-7.749,34.930,-30.571
-0.437,-0.518,0.934,-8.043,37.560,-33.835
-0.435,-0.520,0.939,-7.800,40.439,-37.123
-0.432,-0.524,0.942,-6.890,43.644,-40.303
-0.428,-0.528,0.943,-4.766,47.476,-43.230
-0.424,-0.531,0.943,-0.802,51.689,-46.170
-0.421,-0.532,0.944,5.541,56.169,-49.592
-0.419,-0.534,0.943,13.611,60.825,-53.347
-0.417,-0.535,0.939,23.468,65.992,-57.506
-0.415,-0.538,0.934,33.660,71.533,-61.985
-0.412,-0.540,0.929,41.406,77.492,-66.364
-0.410,-0.540,0.925,46.098,83.693,-70.646
-0.406,-0.539,0.922,48.123,90.268,-74.960
-0.402,-0.538,0.918,48.299,97.241,-79.529
-0.397,-0.540,0.914,47.389,104.092,-84.671
-0.392,-0.543,0.910,44.905,110.804,-90.627
-0.387,-0.547,0.905,40.595,117.454,-96.893
-0.381,-0.555,0.895,34.712,124.336,-103.297
-0.373,-0.567,0.882,28.131,131.424,-109.416
-0.365,-0.588,0.865,22.622,138.928,-114.687
-0.356,-0.610,0.845,19.021,146.523,-118.475
-0.345,-0.629,0.826,17.172,154.164,-120.638
-0.334,-0.644,0.808,16.243,162.239,-121.752
-0.322,-0.651,0.792,15.847,169.951,-122.051
-0.310,-0.659,0.776,15.502,176.601,-121.864
-0.298,-0.668,0.756,15.175,180.099,-121.214
-0.286,-0.679,0.733,14.831,184.362,-120.057
-0.275,-0.692,0.709,14.423,187.352,-118.440
-0.266,-0.705,0.684,13.804,188.980,-116.343
-0.258,-0.716,0.660,12.662,189.315,-114.119
-0.251,-0.728,0.633,11.288,188.633,-111.928
-0.246,-0.740,0.604,9.874,186.733,-109.775
-0.241,-0.752,0.575,8.538,184.000,-107.592
-0.237,-0.766,0.545,7.433,180.668,-105.318
-0.234,-0.780,0.516,6.849,176.953,-103.020
-0.232,-0.793,0.488,6.597,172.998,-100.686
-0.231,-0.804,0.459,6.708,168.931,-98.373
-0.231,-0.814,0.433,7.027,164.968,-96.052
-0.232,-0.821,0.410,7.402,160.909,-93.742
-0.236,-0.826,0.383,8.205,156.568,-91.493
-0.241,-0.830,0.361,9.000,152.294,-89.304
-0.243,-0.833,0.342,9.647,148.235,-87.155
-0.244,-0.834,0.325,9.927,144.094,-84.923
-0.250,-0.835,0.310,10.635,140.401,-82.924
-0.252,-0.835,0.292,10.706,136.975,-80.800
-0.257,-0.837,0.275,10.601,133.301,-78.886
-0.265,-0.838,0.255,10.478,129.689,-77.047
-0.273,-0.840,0.239,10.232,125.896,-75.270
-0.278,-0.842,0.223,9.940,122.356,-73.592
-0.281,-0.846,0.209,9.703,119.122,-71.962
-0.284,-0.850,0.196,9.599,115.919,-70.314
-0.287,-0.855,0.186,9.673,112.782,-68.660
-0.291,-0.859,0.176,9.877,109.742,-66.846
-0.295,-0.862,0.168,10.178,106.807,-65.000
-0.299,-0.863,0.160,10.434,103.989,-63.235
-0.304,-0.863,0.152,10.565,101.277,-61.561
-0.309,-0.864,0.146,10.500,98.614,-59.877
-0.314,-0.864,0.140,10.210,96.000,-58.249
-0.320,-0.864,0.134,9.777,93.455,-56.747
-0.325,-0.865,0.127,9.293,90.982,-55.360
-0.329,-0.866,0.121,8.813,88.580,-54.037
-0.332,-0.868,0.116,8.357,86.248,-52.718
-0.336,-0.870,0.110,7.937,83.983,-51.367
-0.340,-0.871,0.104,7.563,81.783,-49.998
-0.343,-0.874,0.097,7.266,79.643,-48.618
-0.347,-0.876,0.091,7.026,77.560,-47.241
-0.350,-0.878,0.086,6.800,75.527,-45.825
-0.353,-0.879,0.082,6.527,73.541,-44.395
-0.356,-0.880,0.078,6.203,71.599,-42.975
-0.359,-0.881,0.074,5.858,69.698,-41.581
-0.362,-0.882,0.071,5.504,67.711,-40.216
-0.366,-0.883,0.068,5.096,65.637,-38.880
-0.369,-0.884,0.065,4.647,63.443,-37.566
-0.372,-0.885,0.061,4.149,61.198,-36.270
-0.375,-0.887,0.057,3.607,58.903,-34.969
-0.377,-0.889,0.053,3.059,56.580,-33.625
-0.379,-0.892,0.049,2.537,54.148,-32.245
-0.381,-0.895,0.046,2.035,51.551,-30.823
-0.383,-0.898,0.042,1.621,48.944,-29.363
-0.385,-0.900,0.039,1.314,46.316,-27.863
-0.387,-0.903,0.037,1.145,43.668,-26.303
-0.390,-0.905,0.036,1.049,40.982,-24.709
-0.394,-0.907,0.036,0.975,38.280,-23.088
-0.397,-0.908,0.036,0.893,35.732,-21.437
-0.400,-0.909,0.036,0.810,33.391,-19.796
-0.403,-0.908,0.036,0.738,31.267,-18.220
-0.407,-0.908,0.036,0.635,29.281,-16.689
-0.406,-0.908,0.036,0.429,27.376,-15.175
-0.408,-0.907,0.036,0.046,25.541,-13.664
-0.410,-0.907,0.036,-0.593,23.750,-12.178
-0.412,-0.908,0.034,-1.297,22.006,-10.734
-0.413,-0.909,0.032,-1.954,20.268,-9.343
-0.414,-0.911,0.029,-2.447,18.510,-7.992
-0.415,-0.913,0.025,-2.717,16.672,-6.630
-0.417,-0.915,0.023,-2.762,14.666,-5.200
-0.419,-0.917,0.022,-2.741,12.457,-3.717
-0.423,-0.917,0.023,-2.714,10.052,-2.207
-0.426,-0.917,0.025,-2.727,7.699,-0.692
-0.429,-0.917,0.027,-2.822,5.459,0.827
-0.433,-0.916,0.029,-3.014,3.301,2.351
-0.437,-0.915,0.031,-3.261,1.171,3.850
-0.441,-0.915,0.031,-3.415,-0.956,5.276

-0.332,-0.794,0.778,-2.800,-1.077,7.111
-0.335,-0.793,0.777,-2.188,-1.169,9.320
-0.340,-0.791,0.778,-1.601,-1.267,11.806
-0.345,-0.787,0.779,-1.103,-1.369,14.467
-0.349,-0.783,0.781,-0.783,-1.464,17.364
-0.353,-0.779,0.783,-0.603,-1.497,20.515
-0.356,-0.776,0.785,-0.509,-1.490,23.815
-0.357,-0.772,0.788,-0.500,-1.414,27.486
-0.358,-0.770,0.790,-0.530,-1.278,31.412
-0.359,-0.767,0.792,-0.612,-1.063,35.662
-0.358,-0.764,0.793,-0.714,-0.826,40.387
-0.358,-0.760,0.795,-0.852,-0.609,45.812
-0.358,-0.755,0.796,-1.009,-0.411,51.578
-0.358,-0.751,0.799,-1.176,-0.245,57.691
-0.359,-0.745,0.802,-1.326,-0.118,64.107
-0.360,-0.739,0.806,-1.523,0.004,70.866
-0.362,-0.731,0.810,-1.798,0.136,77.645
-0.364,-0.724,0.815,-2.153,0.298,84.481
-0.366,-0.717,0.820,-2.595,0.471,91.323
-0.369,-0.709,0.823,-3.070,0.664,100.049
-0.371,-0.701,0.826,-3.534,0.886,106.849
-0.373,-0.693,0.828,-3.926,1.105,113.707
-0.376,-0.683,0.830,-4.234,1.299,120.510
-0.380,-0.671,0.832,-4.530,1.474,127.183
-0.384,-0.658,0.835,-4.890,1.646,133.717
-0.387,-0.644,0.838,-5.347,1.828,140.176
-0.391,-0.629,0.841,-5.806,1.990,146.324
-0.394,-0.613,0.843,-6.256,2.109,152.115
-0.397,-0.597,0.846,-6.689,2.212,157.584
-0.400,-0.579,0.848,-7.086,2.302,162.750
-0.403,-0.560,0.851,-7.449,2.365,167.621
-0.406,-0.539,0.854,-7.827,2.420,171.927
-0.408,-0.517,0.858,-8.223,2.543,175.646
-0.409,-0.494,0.863,-8.656,2.703,178.802
-0.411,-0.470,0.867,-9.129,2.950,181.112
-0.411,-0.444,0.872,-9.636,3.292,182.615
-0.411,-0.418,0.876,-10.134,4.493,183.352
-0.410,-0.392,0.879,-10.610,5.046,183.356
-0.408,-0.365,0.880,-11.055,5.696,182.746
-0.406,-0.339,0.881,-11.429,6.412,181.477
-0.404,-0.313,0.880,-11.730,7.151,179.825
-0.401,-0.287,0.879,-11.953,7.919,177.898
-0.398,-0.263,0.877,-12.078,8.672,175.755
-0.395,-0.240,0.876,-12.112,9.374,173.338
-0.392,-0.217,0.875,-12.095,10.006,170.774
-0.390,-0.195,0.875,-12.062,10.503,168.065
-0.387,-0.174,0.875,-12.041,10.895,165.248
-0.385,-0.154,0.875,-12.066,11.195,162.280
-0.382,-0.134,0.874,-12.187,11.413,159.261
-0.380,-0.116,0.874,-12.361,11.533,156.202
-0.379,-0.099,0.873,-12.532,11.568,153.106
-0.377,-0.083,0.872,-12.677,11.548,149.992
-0.376,-0.067,0.870,-12.778,11.491,146.849
-0.376,-0.051,0.869,-12.835,11.397,143.746
-0.375,-0.036,0.867,-12.877,11.243,140.670
-0.375,-0.021,0.865,-12.910,11.053,137.634
-0.375,-0.007,0.863,-12.914,10.816,134.623
-0.375,0.007,0.862,-12.873,10.530,131.662
-0.376,0.020,0.860,-12.794,10.176,128.757
-0.377,0.032,0.858,-12.677,9.775,125.935
-0.378,0.044,0.857,-12.516,9.326,123.167
-0.379,0.055,0.856,-12.311,8.844,120.438
-0.380,0.067,0.855,-12.092,8.358,117.761
-0.381,0.077,0.855,-11.866,7.856,115.125
-0.381,0.087,0.856,-11.648,7.347,112.534
-0.382,0.096,0.856,-11.435,6.850,109.956
-0.382,0.104,0.857,-11.167,6.369,107.461
-0.383,0.112,0.858,-10.892,6.128,105.085
-0.384,0.119,0.858,-10.559,5.823,102.752
-0.385,0.127,0.858,-10.207,5.414,100.360
-0.386,0.135,0.859,-9.940,5.075,98.021
-0.388,0.142,0.858,-9.773,4.757,95.771
-0.390,0.149,0.858,-9.608,4.403,93.582
-0.391,0.155,0.858,-9.421,4.062,91.455
-0.391,0.161,0.858,-9.228,3.749,89.388
-0.392,0.167,0.857,-9.034,3.450,87.381
-0.393,0.172,0.857,-8.856,3.160,85.420
-0.394,0.177,0.856,-8.680,2.880,83.510
-0.395,0.182,0.856,-8.477,2.610,81.651
-0.396,0.186,0.855,-8.206,2.315,79.846
-0.396,0.189,0.854,-7.872,2.028,78.088
-0.397,0.192,0.854,-7.517,1.733,76.388
-0.398,0.196,0.854,-7.139,1.456,74.752
-0.398,0.199,0.854,-6.743,1.141,73.166
-0.398,0.203,0.855,-6.391,0.834,71.620
-0.398,0.207,0.856,-6.087,0.554,70.115
-0.398,0.211,0.857,-5.855,0.296,68.649
-0.398,0.215,0.858,-5.707,0.049,67.211
-0.398,0.219,0.858,-5.655,-0.208,65.801
-0.398,0.222,0.858,-5.611,-0.424,64.414
-0.398,0.224,0.857,-5.576,-0.724,63.053
-0.398,0.227,0.857,-5.493,-0.929,62.078
-0.398,0.230,0.857,-5.370,-1.167,60.766
-0.398,0.233,0.857,-5.238,-1.370,59.466
-0.399,0.236,0.857,-5.108,-1.583,58.182
-0.399,0.239,0.859,-4.993,-1.693,56.940
-0.399,0.242,0.860,-4.877,-1.786,55.744
-0.399,0.244,0.861,-4.760,-1.898,54.559
-0.400,0.247,0.863,-4.676,-2.010,53.390
-0.400,0.249,0.864,-4.633,-2.097,52.249
-0.400,0.252,0.864,-4.614,-2.166,51.144
-0.401,0.254,0.865,-4.607,-2.212,50.063
-0.401,0.256,0.865,-4.572,-2.246,49.004
-0.401,0.257,0.865,-4.510,-2.269,47.967
-0.401,0.259,0.866,-4.427,-2.278,46.956
-0.402,0.262,0.866,-4.337,-2.277,45.967
-0.402,0.264,0.866,-4.228,-2.265,45.002
-0.403,0.266,0.866,-4.130,-2.248,44.064
-0.404,0.268,0.866,-4.038,-2.228,43.160
-0.405,0.270,0.866,-3.962,-2.206,42.285
-0.406,0.272,0.866,-3.924,-2.198,41.435
-0.406,0.273,0.867,-3.921,-2.195,40.604
-0.406,0.273,0.867,-3.908,-2.221,39.799
-0.406,0.274,0.867,-3.883,-2.274,39.026
-0.407,0.275,0.868,-3.862,-2.315,38.296
-0.407,0.275,0.868,-3.836,-2.344,37.629
-0.407,0.275,0.868,-3.788,-2.366,37.003
-0.407,0.276,0.867,-3.714,-2.399,36.410
-0.407,0.277,0.867,-3.612,-2.430,35.851

0.152,1.166,0.596,-2.424,-7.483,18.635
0.157,1.180,0.591,-1.651,-13.509,-0.555
0.164,1.184,0.589,-1.120,-20.905,-22.174
0.171,1.182,0.595,-0.735,-29.463,-46.541
0.181,1.170,0.603,-0.492,-37.404,-72.614
0.191,1.156,0.611,-0.092,-45.443,-100.471
0.197,1.145,0.628,-0.331,-52.796,-128.270
0.199,1.139,0.641,-1.138,-61.327,-156.719
0.202,1.134,0.657,-3.703,-69.294,-184.777
0.207,1.125,0.674,-8.272,-75.413,-211.738
0.214,1.110,0.695,-15.841,-79.904,-235.689
0.222,1.090,0.718,-25.625,-83.378,-255.690
0.232,1.071,0.741,-36.491,-85.384,-270.483
0.247,1.050,0.756,-47.123,-85.200,-280.432
0.265,1.024,0.766,-54.696,-83.779,-286.605
0.292,0.992,0.775,-58.865,-81.929,-289.049
0.321,0.953,0.788,-61.067,-79.977,-287.892
0.348,0.908,0.803,-62.358,-77.418,-282.983
0.369,0.852,0.817,-62.894,-74.331,-276.600
0.380,0.793,0.833,-62.847,-71.054,-269.384
0.381,0.733,0.850,-62.297,-67.579,-261.685
0.375,0.677,0.866,-61.309,-64.078,-253.880
0.365,0.627,0.878,-60.040,-60.353,-246.092
0.353,0.586,0.887,-58.602,-56.638,-238.505
0.338,0.551,0.892,-57.015,-53.246,-231.145
0.320,0.521,0.894,-55.474,-50.335,-224.046
0.300,0.495,0.894,-54.131,-47.835,-217.233
0.278,0.469,0.894,-52.865,-45.767,-210.681
0.255,0.443,0.893,-51.615,-44.111,-204.409
0.233,0.418,0.892,-50.221,-42.698,-198.408
0.213,0.393,0.890,-48.428,-41.467,-192.650
0.193,0.370,0.889,-46.236,-40.365,-187.118
0.175,0.349,0.888,-43.729,-39.399,-181.772
0.157,0.330,0.887,-41.154,-38.493,-176.624
0.140,0.312,0.887,-38.663,-37.692,-171.653
0.124,0.295,0.886,-36.237,-36.999,-166.868
0.108,0.279,0.886,-33.839,-36.384,-162.248
0.093,0.263,0.887,-31.485,-35.823,-157.792
0.079,0.249,0.887,-29.123,-35.312,-153.491
0.065,0.235,0.888,-26.757,-34.846,-149.339
0.052,0.223,0.890,-24.542,-34.429,-145.345
0.040,0.213,0.892,-22.592,-33.979,-141.495
0.029,0.203,0.894,-20.872,-33.511,-137.783
0.017,0.194,0.896,-19.290,-33.089,-134.235
0.007,0.185,0.899,-17.920,-32.628,-130.841
-0.003,0.178,0.903,-16.519,-31.948,-127.580
-0.012,0.168,0.912,-15.740,-31.507,-124.345
-0.028,0.162,0.917,-14.219,-30.838,-121.479
-0.033,0.157,0.919,-13.267,-29.534,-118.508
-0.042,0.151,0.920,-12.461,-28.924,-115.637
-0.054,0.147,0.921,-11.702,-28.447,-112.899
-0.061,0.143,0.923,-11.207,-27.839,-110.214
-0.069,0.139,0.926,-10.769,-27.089,-107.663
-0.076,0.134,0.928,-10.489,-26.405,-105.137
-0.084,0.130,0.930,-10.279,-25.848,-102.674
-0.091,0.126,0.931,-10.133,-25.328,-100.282
-0.098,0.122,0.932,-9.987,-24.807,-97.957
-0.104,0.118,0.933,-9.796,-24.276,-95.669
-0.111,0.114,0.934,-9.535,-23.755,-93.439
-0.117,0.111,0.935,-9.218,-23.207,-91.266
-0.122,0.108,0.936,-8.910,-22.653,-89.146
-0.128,0.107,0.938,-8.630,-22.101,-87.074
-0.134,0.105,0.939,-8.373,-21.557,-85.050
-0.139,0.104,0.940,-8.138,-21.064,-83.076
-0.145,0.102,0.941,-7.906,-20.602,-81.159
-0.150,0.101,0.942,-7.705,-20.180,-79.291
-0.156,0.100,0.943,-7.494,-19.801,-77.470
-0.162,0.099,0.944,-7.285,-19.459,-75.694
-0.167,0.098,0.946,-7.075,-19.144,-73.962
-0.173,0.096,0.947,-6.816,-18.826,-72.275
-0.178,0.095,0.948,-6.511,-18.530,-70.642
-0.183,0.094,0.949,-6.171,-18.229,-69.062
-0.187,0.093,0.951,-5.838,-17.921,-67.519
-0.192,0.093,0.952,-5.521,-17.618,-66.017
-0.195,0.093,0.954,-5.273,-17.312,-64.562
-0.199,0.092,0.956,-5.097,-17.012,-63.143
-0.202,0.092,0.958,-4.979,-16.709,-61.764
-0.206,0.092,0.960,-4.927,-16.410,-60.423
-0.208,0.091,0.962,-4.915,-16.100,-59.119
-0.211,0.091,0.963,-4.956,-15.781,-57.845
-0.214,0.090,0.964,-5.031,-15.452,-56.601
-0.217,0.089,0.964,-5.123,-15.125,-55.385
-0.220,0.088,0.964,-5.151,-14.777,-54.193
-0.222,0.086,0.965,-5.115,-14.419,-53.024
-0.225,0.085,0.965,-5.010,-14.029,-51.884
-0.227,0.083,0.966,-4.864,-13.637,-50.773
-0.230,0.082,0.966,-4.707,-13.248,-49.688
-0.232,0.082,0.967,-4.572,-12.866,-48.631
-0.235,0.081,0.968,-4.490,-12.497,-47.594
-0.237,0.081,0.969,-4.481,-12.152,-46.581
-0.239,0.081,0.971,-4.591,-11.830,-45.593
-0.241,0.080,0.972,-4.780,-11.543,-44.631
-0.243,0.079,0.973,-5.043,-11.267,-43.698
-0.245,0.078,0.973,-5.373,-10.992,-42.781
-0.247,0.076,0.974,-5.709,-10.701,-41.869
-0.248,0.074,0.973,-5.992,-10.376,-40.974
-0.249,0.072,0.973,-6.193,-9.995,-40.091
-0.251,0.069,0.973,-6.318,-9.577,-39.211
-0.252,0.067,0.974,-6.393,-9.136,-38.328
-0.254,0.066,0.975,-6.458,-8.682,-37.438
-0.256,0.064,0.976,-6.547,-8.224,-36.540
-0.257,0.063,0.977,-6.685,-7.778,-35.627
-0.259,0.061,0.979,-6.894,-7.339,-34.715
-0.261,0.060,0.980,-7.210,-6.909,-33.785
-0.263,0.058,0.981,-7.595,-6.497,-32.843
-0.265,0.057,0.981,-8.020,-6.085,-31.892
-0.266,0.055,0.981,-8.456,-5.668,-30.930
-0.268,0.052,0.981,-8.896,-5.247,-29.949
-0.270,0.049,0.981,-9.300,-4.808,-28.955
-0.271,0.046,0.981,-9.678,-4.342,-27.945
-0.273,0.043,0.981,-10.057,-3.860,-26.894
-0.274,0.040,0.982,-10.436,-3.364,-25.814
-0.276,0.036,0.982,-10.796,-2.857,-24.698
-0.277,0.033,0.983,-11.144,-2.352,-23.551
-0.278,0.030,0.983,-11.528,-1.856,-22.366
-0.279,0.027,0.985,-12.017,-1.352,-21.127
-0.280,0.024,0.986,-12.603,-0.852,-19.863
-0.282,0.020,0.987,-13.274,-0.330,-18.550
-0.283,0.017,0.988,-14.008,0.202,-17.201

0.237,0.942,0.727,-13.856,-2.036,-21.426
0.240,0.947,0.722,-13.799,-4.177,-26.162
0.242,0.954,0.716,-13.815,-6.293,-31.435
0.244,0.961,0.709,-13.915,-8.445,-37.395
0.245,0.971,0.701,-14.038,-10.671,-44.487
0.246,0.980,0.693,-14.134,-13.040,-52.415
0.246,0.991,0.684,-14.222,-15.624,-61.303
0.246,1.002,0.676,-14.354,-18.304,-71.196
0.245,1.013,0.668,-14.585,-21.225,-83.115
0.244,1.023,0.663,-15.053,-24.587,-96.837
0.243,1.033,0.659,-15.790,-28.564,-112.329
0.241,1.040,0.658,-16.899,-32.728,-129.501
0.239,1.045,0.658,-18.546,-37.012,-149.011
0.236,1.048,0.659,-20.546,-41.382,-169.195
0.234,1.048,0.661,-22.924,-45.781,-189.653
0.233,1.047,0.663,-25.669,-49.968,-210.395
0.231,1.042,0.667,-29.049,-53.917,-230.166
0.231,1.033,0.673,-33.009,-57.502,-248.313
0.233,1.020,0.681,-37.746,-60.413,-264.771
0.236,1.003,0.691,-43.407,-62.742,-278.702
0.241,0.981,0.702,-50.294,-64.543,-289.439
0.247,0.956,0.714,-57.373,-65.684,-296.838
0.254,0.927,0.723,-64.050,-65.861,-301.539
0.261,0.900,0.731,-69.463,-65.508,-303.417
0.268,0.871,0.737,-72.986,-64.753,-302.361
0.277,0.838,0.741,-74.732,-63.859,-299.844
0.285,0.802,0.746,-75.077,-62.933,-296.023
0.292,0.765,0.753,-74.572,-61.959,-291.047
0.295,0.729,0.761,-73.695,-60.907,-284.777
0.297,0.693,0.769,-72.664,-59.812,-278.013
0.295,0.657,0.779,-71.648,-58.740,-270.936
0.290,0.620,0.788,-70.667,-57.700,-263.692
0.283,0.583,0.799,-69.662,-56.667,-256.379
0.276,0.545,0.809,-68.519,-55.637,-248.965
0.268,0.508,0.819,-67.242,-54.597,-241.678
0.258,0.474,0.829,-65.859,-53.525,-234.553
0.249,0.443,0.837,-64.434,-52.441,-227.626
0.238,0.414,0.843,-62.979,-51.364,-220.895
0.226,0.388,0.849,-61.521,-50.303,-214.433
0.213,0.363,0.854,-60.004,-49.249,-208.235
0.200,0.340,0.859,-58.385,-48.206,-202.295
0.187,0.319,0.864,-56.734,-47.202,-196.601
0.174,0.299,0.868,-55.009,-46.202,-191.143
0.160,0.281,0.873,-53.377,-45.214,-185.910
0.145,0.264,0.875,-51.398,-43.570,-180.902
0.132,0.247,0.870,-49.727,-43.231,-176.078
0.117,0.232,0.880,-48.275,-41.840,-171.432
0.107,0.218,0.885,-46.975,-40.193,-167.006
0.094,0.205,0.887,-45.695,-39.399,-162.705
0.081,0.193,0.892,-44.572,-38.649,-158.556
0.069,0.182,0.897,-43.540,-37.654,-154.561
0.057,0.171,0.900,-42.608,-36.636,-150.713
0.043,0.161,0.902,-41.681,-35.780,-146.987
0.030,0.151,0.905,-40.777,-34.918,-143.385
0.018,0.141,0.907,-39.899,-34.030,-139.901
0.005,0.132,0.909,-39.022,-33.176,-136.530
-0.007,0.123,0.911,-38.147,-32.359,-133.265
-0.019,0.115,0.913,-37.298,-31.548,-130.101
-0.030,0.107,0.916,-36.489,-30.764,-127.036
-0.041,0.101,0.919,-35.748,-30.006,-124.064
-0.051,0.095,0.923,-35.091,-29.270,-121.182
-0.061,0.088,0.926,-34.550,-28.560,-118.386
-0.069,0.082,0.928,-34.105,-27.869,-115.672
-0.078,0.076,0.929,-33.710,-27.193,-113.037
-0.085,0.069,0.931,-33.297,-26.517,-110.477
-0.093,0.063,0.932,-32.804,-25.819,-107.990
-0.101,0.056,0.934,-32.237,-25.109,-105.573
-0.108,0.050,0.935,-31.599,-24.383,-103.225
-0.114,0.046,0.938,-30.955,-23.665,-100.838
-0.121,0.041,0.940,-30.337,-22.955,-98.419
-0.127,0.038,0.943,-29.765,-22.237,-95.960
-0.133,0.034,0.945,-29.229,-21.496,-93.492
-0.138,0.030,0.947,-28.708,-20.733,-90.992
-0.143,0.027,0.950,-28.207,-19.958,-88.450
-0.149,0.023,0.953,-27.740,-19.164,-85.876
-0.154,0.020,0.956,-27.314,-18.367,-83.287
-0.160,0.016,0.959,-26.927,-17.559,-80.686
-0.165,0.013,0.962,-26.576,-16.724,-78.093
-0.170,0.010,0.965,-26.289,-15.877,-75.489
-0.175,0.007,0.967,-26.070,-15.015,-72.900
-0.180,0.004,0.970,-25.913,-14.112,-70.350
-0.185,0.002,0.973,-25.817,-13.144,-67.828
-0.189,-0.001,0.975,-25.776,-12.107,-65.312
-0.193,-0.004,0.978,-25.782,-11.012,-62.828
-0.197,-0.008,0.980,-25.840,-9.830,-60.337
-0.201,-0.011,0.982,-25.930,-8.623,-57.775
-0.205,-0.016,0.983,-26.021,-7.407,-55.170
-0.210,-0.020,0.984,-26.076,-6.200,-52.531
-0.214,-0.024,0.986,-26.106,-4.997,-49.861
-0.218,-0.028,0.987,-26.143,-3.796,-47.086
-0.222,-0.033,0.989,-26.212,-2.597,-44.269
-0.226,-0.036,0.990,-26.332,-1.387,-41.407
-0.230,-0.040,0.991,-26.474,-0.195,-38.486
-0.234,-0.044,0.992,-26.685,0.985,-35.574
-0.238,-0.047,0.992,-26.910,2.229,-32.680
-0.242,-0.051,0.992,-27.149,3.480,-29.788
-0.246,-0.054,0.993,-27.396,4.733,-26.867
-0.251,-0.058,0.993,-27.639,6.001,-23.943
-0.255,-0.062,0.992,-27.848,7.265,-21.021
-0.261,-0.065,0.991,-28.012,8.474,-18.052
-0.266,-0.069,0.991,-28.127,9.633,-15.076
-0.271,-0.073,0.990,-28.218,10.736,-12.089
-0.276,-0.077,0.990,-28.319,11.800,-9.103
-0.281,-0.080,0.990,-28.440,12.837,-6.099
-0.286,-0.083,0.990,-28.601,13.867,-3.089
-0.291,-0.087,0.990,-28.792,14.869,-0.070
-0.295,-0.090,0.989,-28.987,15.851,2.934
-0.299,-0.094,0.988,-29.164,16.817,6.011
-0.304,-0.098,0.987,-29.289,17.777,9.130
-0.308,-0.102,0.986,-29.363,18.752,12.264
-0.312,-0.106,0.984,-29.387,19.727,15.420
-0.316,-0.110,0.984,-29.392,20.705,18.685
-0.321,-0.113,0.983,-29.434,21.687,21.966
-0.325,-0.116,0.983,-29.542,22.682,25.264
-0.329,-0.119,0.982,-29.715,23.677,28.557
-0.333,-0.122,0.981,-29.964,24.661,31.912
-0.337,-0.125,0.980,-30.281,25.627,35.267
-0.341,-0.127,0.978,-30.647,26.576,38.638
-0.345,-0.130,0.977,-31.071,27.495,42.031

0.094,0.927,0.882,-28.817,21.190,15.424
0.095,0.926,0.884,-26.650,15.205,-10.535
0.097,0.924,0.887,-24.658,9.554,-36.308
0.098,0.922,0.890,-22.846,4.236,-61.031
0.100,0.919,0.893,-21.218,-0.758,-84.525
0.101,0.915,0.896,-19.839,-5.316,-106.816
0.103,0.910,0.899,-18.788,-9.380,-127.835
0.105,0.904,0.901,-18.182,-13.077,-147.964
0.107,0.897,0.904,-17.915,-16.540,-166.917
0.110,0.888,0.908,-18.050,-19.658,-184.653
0.114,0.877,0.911,-18.743,-22.417,-201.134
0.119,0.863,0.916,-20.099,-24.872,-215.953
0.123,0.846,0.922,-21.798,-27.065,-229.118
0.129,0.825,0.930,-23.687,-28.826,-240.416
0.136,0.802,0.939,-25.604,-30.079,-249.582
0.145,0.777,0.947,-27.307,-30.875,-255.991
0.153,0.751,0.953,-28.817,-31.254,-260.413
0.161,0.726,0.957,-30.177,-31.255,-263.090
0.168,0.700,0.961,-31.462,-31.020,-264.213
0.174,0.671,0.964,-32.614,-30.600,-263.498
0.180,0.641,0.966,-33.638,-30.048,-261.696
0.184,0.611,0.968,-34.589,-29.336,-259.040
0.186,0.580,0.970,-35.484,-28.564,-255.779
0.187,0.549,0.971,-36.343,-27.710,-251.656
0.186,0.517,0.972,-37.052,-26.787,-247.071
0.184,0.485,0.973,-37.567,-25.850,-242.223
0.180,0.451,0.973,-37.870,-24.954,-237.178
0.173,0.417,0.973,-37.942,-24.070,-231.914
0.166,0.384,0.973,-37.715,-23.197,-226.328
0.157,0.350,0.973,-37.344,-22.378,-220.691
0.148,0.318,0.974,-36.907,-21.632,-215.050
0.139,0.286,0.975,-36.406,-20.875,-209.468
0.130,0.256,0.976,-35.839,-20.087,-203.917
0.120,0.227,0.977,-35.262,-19.259,-198.508
0.110,0.200,0.977,-34.693,-18.404,-193.260
0.099,0.174,0.977,-34.131,-17.586,-188.188
0.087,0.149,0.978,-33.563,-16.798,-183.306
0.076,0.123,0.983,-33.184,-16.045,-178.669
0.061,0.101,0.978,-32.370,-15.479,-174.187
0.050,0.080,0.975,-31.638,-13.984,-170.012
0.038,0.060,0.975,-30.893,-12.809,-166.045
0.024,0.042,0.973,-30.049,-11.848,-162.229
0.010,0.027,0.971,-29.267,-10.944,-158.445
-0.003,0.013,0.971,-28.526,-9.938,-154.077
-0.016,-0.001,0.968,-27.582,-9.391,-149.955
-0.030,-0.012,0.967,-26.659,-8.606,-146.016
-0.042,-0.020,0.966,-25.905,-7.659,-141.662
-0.055,-0.029,0.965,-25.310,-6.916,-137.091
-0.068,-0.037,0.963,-24.681,-6.243,-132.714
-0.079,-0.043,0.962,-24.053,-4.651,-128.389
-0.090,-0.049,0.961,-23.439,-3.871,-124.143
-0.102,-0.053,0.960,-22.854,-3.085,-120.006
-0.113,-0.057,0.958,-22.289,-2.286,-115.939
-0.124,-0.060,0.957,-21.731,-1.531,-111.933
-0.135,-0.062,0.956,-21.145,-0.882,-108.055
-0.145,-0.064,0.955,-20.561,-0.353,-104.331
-0.156,-0.065,0.954,-20.028,0.098,-100.748
-0.165,-0.066,0.953,-19.545,0.482,-97.280
-0.175,-0.067,0.951,-19.110,0.800,-93.939
-0.184,-0.067,0.950,-18.705,1.072,-90.709
-0.192,-0.068,0.948,-18.321,1.300,-87.621
-0.200,-0.068,0.947,-17.961,1.550,-84.633
-0.208,-0.068,0.945,-17.588,1.770,-81.778
-0.215,-0.068,0.944,-17.203,1.944,-79.056
-0.223,-0.068,0.943,-16.816,2.159,-76.415
-0.230,-0.068,0.942,-16.437,2.329,-73.847
-0.238,-0.068,0.941,-16.021,2.464,-71.429
-0.246,-0.067,0.940,-15.609,2.570,-69.111
-0.253,-0.066,0.939,-15.225,2.643,-66.905
-0.260,-0.065,0.938,-14.867,2.695,-64.802
-0.267,-0.064,0.937,-14.567,2.712,-62.809
-0.274,-0.064,0.936,-14.301,2.705,-60.898
-0.281,-0.063,0.935,-14.033,2.676,-59.061
-0.287,-0.063,0.933,-13.735,2.626,-57.302
-0.293,-0.063,0.932,-13.405,2.571,-55.623
-0.299,-0.063,0.930,-13.050,2.513,-54.003
-0.304,-0.063,0.929,-12.622,2.450,-52.432
-0.309,-0.064,0.928,-12.124,2.380,-50.929
-0.314,-0.064,0.927,-11.619,2.304,-49.491
-0.318,-0.064,0.927,-11.141,2.212,-48.096
-0.322,-0.064,0.926,-10.728,2.103,-46.750
-0.326,-0.063,0.927,-10.377,1.979,-45.460
-0.330,-0.063,0.927,-10.097,1.838,-44.209
-0.334,-0.063,0.927,-9.894,1.685,-42.987
-0.337,-0.063,0.927,-9.785,1.531,-41.796
-0.340,-0.063,0.927,-9.714,1.382,-40.620
-0.343,-0.064,0.926,-9.653,1.251,-39.462
-0.345,-0.066,0.926,-9.537,1.144,-38.305
-0.347,-0.067,0.925,-9.367,1.053,-37.160
-0.350,-0.069,0.925,-9.145,0.993,-36.020
-0.351,-0.070,0.925,-8.890,0.962,-34.896
-0.353,-0.071,0.926,-8.650,0.959,-33.771
-0.355,-0.072,0.927,-8.465,0.979,-32.650
-0.357,-0.073,0.928,-8.355,1.016,-31.537
-0.358,-0.074,0.929,-8.310,1.054,-30.416
-0.360,-0.075,0.930,-8.363,1.099,-29.301
-0.362,-0.076,0.931,-8.483,1.165,-28.171
-0.364,-0.077,0.932,-8.655,1.239,-27.026
-0.365,-0.079,0.933,-8.852,1.331,-25.859
-0.367,-0.081,0.934,-9.060,1.436,-24.678
-0.369,-0.083,0.934,-9.246,1.592,-23.491
-0.370,-0.085,0.934,-9.378,1.786,-22.292
-0.371,-0.087,0.935,-9.460,2.032,-21.068
-0.372,-0.088,0.936,-9.542,2.322,-19.835
-0.374,-0.090,0.937,-9.652,2.675,-18.599
-0.375,-0.091,0.939,-9.823,3.063,-17.365
-0.376,-0.092,0.940,-10.130,3.479,-16.127
-0.377,-0.093,0.942,-10.573,3.929,-14.885
-0.378,-0.094,0.943,-11.154,4.422,-13.633
-0.380,-0.095,0.944,-11.813,4.939,-12.308
-0.381,-0.098,0.944,-12.471,5.467,-10.941
-0.383,-0.100,0.944,-13.092,6.004,-9.541
-0.385,-0.103,0.943,-13.627,6.548,-8.113
-0.387,-0.106,0.942,-14.045,7.092,-6.634
-0.389,-0.108,0.942,-14.408,7.650,-5.126
-0.391,-0.111,0.941,-14.716,8.233,-3.585
-0.393,-0.113,0.941,-15.010,8.818,-1.993
-0.395,-0.115,0.941,-15.330,9.396,-0.391
-0.397,-0.116,0.942,-15.689,9.993,1.215

-0.356,-0.774,0.781,-16.417,9.183,0.139
-0.353,-0.774,0.794,-17.325,8.756,-0.920
-0.348,-0.772,0.804,-18.305,8.923,-2.053
-0.343,-0.769,0.810,-19.389,9.950,-3.173
-0.337,-0.767,0.813,-20.953,12.634,-3.919
-0.328,-0.764,0.816,-23.053,17.111,-5.564
-0.322,-0.768,0.817,-25.248,23.051,-8.187
-0.317,-0.772,0.816,-26.217,29.451,-11.338
-0.313,-0.773,0.814,-26.611,35.864,-14.535
-0.309,-0.772,0.814,-26.941,41.946,-17.238
-0.303,-0.772,0.813,-27.150,48.292,-19.698
-0.294,-0.771,0.808,-27.258,55.326,-20.972
-0.280,-0.772,0.799,-27.295,63.870,-22.695
-0.262,-0.774,0.788,-27.157,75.416,-23.802
-0.241,-0.778,0.772,-26.735,89.393,-24.357
-0.222,-0.782,0.752,-25.731,106.548,-24.388
-0.204,-0.786,0.725,-24.268,127.744,-24.212
-0.194,-0.791,0.688,-22.396,155.106,-23.881
-0.188,-0.802,0.639,-19.149,184.651,-23.428
-0.193,-0.814,0.599,-14.690,210.920,-22.798
-0.212,-0.827,0.572,-9.658,227.819,-21.681
-0.249,-0.838,0.553,-6.259,236.712,-20.470
-0.289,-0.853,0.544,-3.836,238.376,-20.154
-0.320,-0.860,0.555,-3.236,235.536,-20.256
-0.295,-0.862,0.610,-6.136,312.699,-22.223
-0.244,-0.859,0.598,-11.964,359.665,-22.603
-0.258,-0.872,0.612,-17.081,389.132,-22.757
-0.231,-0.880,0.617,-22.135,398.182,-21.766
-0.209,-0.884,0.611,-28.255,391.701,-19.630
-0.187,-0.880,0.595,-33.536,378.249,-16.666
-0.170,-0.876,0.567,-36.953,362.925,-13.432
-0.156,-0.874,0.524,-38.464,348.163,-10.314
-0.147,-0.873,0.475,-38.761,334.677,-7.367
-0.142,-0.875,0.424,-38.017,322.248,-4.437
-0.139,-0.881,0.380,-35.744,310.594,-1.396
-0.141,-0.890,0.340,-31.188,299.478,1.875
-0.145,-0.899,0.308,-23.763,288.891,5.520
-0.151,-0.902,0.285,-15.830,278.842,9.166
-0.159,-0.899,0.266,-8.981,269.377,12.475
-0.169,-0.892,0.250,-4.084,260.435,15.230
-0.181,-0.883,0.234,-1.772,251.952,17.122
-0.194,-0.874,0.219,-0.926,243.873,18.410
-0.206,-0.868,0.200,-0.852,236.183,19.230
-0.219,-0.863,0.181,-1.148,228.834,19.654
-0.231,-0.860,0.164,-1.639,221.815,19.739
-0.242,-0.856,0.146,-2.085,215.107,19.675
-0.253,-0.852,0.130,-2.344,208.695,19.512
-0.263,-0.848,0.115,-2.384,202.596,19.292
-0.274,-0.843,0.101,-2.157,196.780,19.014
-0.285,-0.838,0.088,-1.522,191.243,18.663
-0.295,-0.833,0.077,-0.734,185.968,18.256
-0.305,-0.829,0.066,0.202,180.936,17.810
-0.315,-0.826,0.054,1.301,176.122,17.335
-0.325,-0.824,0.044,2.450,171.481,16.844
-0.334,-0.822,0.034,3.422,166.990,16.348
-0.342,-0.821,0.024,4.220,162.610,15.848
-0.350,-0.819,0.015,4.734,158.358,15.541
-0.358,-0.821,0.006,5.418,154.173,15.182
-0.365,-0.821,-0.002,6.256,150.090,14.687
-0.371,-0.820,-0.008,6.822,146.118,14.231
-0.377,-0.819,-0.015,7.268,142.253,13.862
-0.383,-0.819,-0.022,7.705,138.505,13.512
-0.389,-0.819,-0.029,8.097,134.876,13.183
-0.394,-0.818,-0.035,8.420,131.365,12.883
-0.400,-0.817,-0.041,8.658,127.970,12.607
-0.405,-0.817,-0.047,8.843,124.684,12.362
-0.411,-0.817,-0.054,9.003,121.504,12.118
-0.416,-0.817,-0.060,9.128,118.423,11.875
-0.422,-0.816,-0.066,9.201,115.437,11.635
-0.427,-0.816,-0.071,9.187,112.540,11.402
-0.431,-0.815,-0.077,9.155,109.731,11.370
-0.436,-0.816,-0.082,9.362,107.004,11.069
-0.442,-0.816,-0.088,9.662,104.356,11.302
-0.446,-0.816,-0.094,9.829,101.784,11.006
-0.450,-0.815,-0.098,9.983,99.285,10.721
-0.455,-0.815,-0.101,10.172,96.857,10.415
-0.459,-0.816,-0.104,10.403,94.497,10.139
-0.463,-0.817,-0.107,10.702,92.196,9.889
-0.467,-0.817,-0.110,10.993,89.860,9.683
-0.472,-0.818,-0.113,11.242,87.540,9.499
-0.476,-0.818,-0.115,11.457,85.255,9.316
-0.480,-0.819,-0.116,11.649,83.013,9.149
-0.484,-0.819,-0.116,11.758,80.797,9.031
-0.487,-0.820,-0.116,11.798,78.655,8.945
-0.490,-0.820,-0.117,11.784,76.571,8.868
-0.493,-0.820,-0.119,11.723,74.601,8.807
-0.496,-0.821,-0.122,11.644,72.766,8.748
-0.499,-0.821,-0.125,11.445,71.028,8.691
-0.502,-0.820,-0.129,11.198,69.343,8.632
-0.505,-0.820,-0.133,10.962,67.706,8.556
-0.508,-0.820,-0.137,10.787,66.111,8.472
-0.510,-0.820,-0.140,10.699,64.553,8.393
-0.513,-0.819,-0.142,10.644,63.022,8.348
-0.517,-0.819,-0.143,10.625,61.404,8.341
-0.520,-0.819,-0.145,10.647,59.719,8.356
-0.523,-0.819,-0.146,10.677,57.982,8.395
-0.526,-0.818,-0.148,10.687,56.208,8.437
-0.528,-0.818,-0.150,10.645,54.387,8.478
-0.531,-0.818,-0.151,10.527,52.503,8.536
-0.533,-0.818,-0.154,10.359,50.610,8.602
-0.536,-0.818,-0.157,10.178,48.747,8.628
-0.538,-0.818,-0.159,9.981,46.889,8.667
-0.540,-0.818,-0.161,9.741,45.030,8.726
-0.542,-0.817,-0.164,9.489,43.129,8.785
-0.544,-0.817,-0.166,9.261,41.221,8.855
-0.546,-0.817,-0.168,9.080,39.350,8.936
-0.548,-0.817,-0.170,8.916,37.512,9.054
-0.551,-0.817,-0.171,8.752,35.681,9.202
-0.553,-0.816,-0.172,8.555,33.855,9.375
-0.554,-0.816,-0.174,8.321,32.017,9.565
-0.556,-0.815,-0.175,8.041,30.159,9.767
-0.558,-0.814,-0.177,7.724,28.301,9.969
-0.560,-0.814,-0.178,7.366,26.397,10.156
-0.562,-0.813,-0.180,6.919,24.469,10.354
-0.564,-0.812,-0.181,6.387,22.501,10.543
-0.566,-0.811,-0.182,5.804,20.498,10.736
-0.568,-0.811,-0.184,5.198,18.448,10.934
-0.570,-0.810,-0.186,4.598,16.328,11.139
-0.571,-0.809,-0.188,4.009,14.182,11.346

-0.448,-0.842,-0.617,4.879,15.047,11.833
-0.454,-0.837,-0.620,5.324,15.157,12.918
-0.459,-0.834,-0.623,6.080,15.066,13.513
-0.465,-0.829,-0.626,6.899,14.691,13.827
-0.469,-0.824,-0.628,7.419,13.957,14.036
-0.474,-0.820,-0.630,7.734,12.832,14.247
-0.478,-0.818,-0.632,7.934,11.199,14.448
-0.480,-0.816,-0.636,8.096,9.237,14.602
-0.482,-0.813,-0.638,8.107,6.579,14.960
-0.484,-0.812,-0.640,8.432,4.261,14.999
-0.487,-0.810,-0.643,8.467,1.486,15.270
-0.489,-0.809,-0.646,8.309,-1.865,15.664
-0.492,-0.807,-0.647,8.032,-5.721,16.044
-0.495,-0.805,-0.647,7.660,-9.929,16.498
-0.499,-0.805,-0.646,7.238,-14.558,16.921
-0.503,-0.805,-0.645,6.777,-19.831,17.437
-0.507,-0.806,-0.643,6.164,-25.562,18.115
-0.510,-0.806,-0.641,5.285,-31.705,18.878
-0.514,-0.807,-0.638,4.145,-38.321,19.696
-0.517,-0.808,-0.635,2.899,-45.132,20.508
-0.520,-0.808,-0.632,1.615,-52.132,21.439
-0.523,-0.809,-0.628,0.369,-58.864,22.448
-0.526,-0.809,-0.625,-0.830,-65.464,23.584
-0.530,-0.808,-0.618,-2.073,-72.133,24.896
-0.534,-0.808,-0.610,-3.402,-78.856,26.363
-0.538,-0.807,-0.598,-4.919,-85.682,27.840
-0.542,-0.806,-0.585,-6.610,-92.918,29.301
-0.546,-0.805,-0.569,-8.636,-100.295,30.763
-0.550,-0.804,-0.552,-11.217,-107.441,32.287
-0.555,-0.802,-0.535,-14.102,-114.242,33.830
-0.559,-0.801,-0.519,-17.005,-120.290,35.345
-0.563,-0.800,-0.504,-19.625,-125.405,36.870
-0.567,-0.798,-0.490,-21.560,-129.610,38.414
-0.570,-0.796,-0.477,-22.829,-133.106,39.966
-0.574,-0.793,-0.466,-23.447,-136.010,41.489
-0.577,-0.790,-0.455,-23.602,-138.843,42.976
-0.581,-0.785,-0.443,-23.434,-141.954,44.399
-0.584,-0.779,-0.427,-23.212,-145.957,45.703
-0.587,-0.773,-0.408,-23.200,-150.838,46.849
-0.589,-0.764,-0.384,-23.912,-156.425,47.823
-0.591,-0.755,-0.356,-25.376,-162.651,48.438
-0.592,-0.745,-0.323,-27.620,-169.405,48.641
-0.594,-0.735,-0.288,-31.200,-176.026,48.364
-0.594,-0.725,-0.253,-35.816,-181.638,47.822
-0.593,-0.714,-0.223,-41.079,-184.835,46.993
-0.591,-0.706,-0.202,-45.909,-185.182,45.633
-0.586,-0.703,-0.191,-48.692,-182.734,44.618
-0.579,-0.705,-0.186,-49.794,-178.534,43.644
-0.572,-0.711,-0.182,-49.688,-174.224,42.746
-0.566,-0.718,-0.173,-48.786,-170.438,42.110
-0.562,-0.720,-0.160,-47.732,-167.443,41.829
-0.561,-0.718,-0.141,-46.706,-165.178,41.704
-0.561,-0.713,-0.122,-45.769,-163.102,41.423
-0.561,-0.704,-0.102,-44.994,-161.083,40.605
-0.560,-0.692,-0.081,-44.498,-159.179,39.466
-0.559,-0.680,-0.058,-44.541,-157.481,38.163
-0.556,-0.668,-0.034,-45.692,-156.083,36.198
-0.554,-0.659,-0.011,-47.528,-154.911,33.789
-0.550,-0.653,0.012,-49.690,-153.994,31.045
-0.547,-0.649,0.035,-51.902,-152.952,28.068
-0.543,-0.650,0.055,-53.814,-151.356,25.143
-0.538,-0.652,0.072,-55.110,-148.705,22.366
-0.533,-0.654,0.085,-55.725,-145.479,19.852
-0.529,-0.658,0.095,-55.496,-141.974,17.859
-0.526,-0.664,0.106,-54.630,-138.365,16.175
-0.524,-0.667,0.115,-53.525,-134.860,14.722
-0.525,-0.669,0.124,-52.099,-131.547,13.344
-0.526,-0.671,0.134,-50.425,-128.683,11.894
-0.527,-0.674,0.148,-48.762,-126.316,10.289
-0.526,-0.675,0.163,-47.128,-124.402,8.121
-0.524,-0.675,0.179,-45.832,-122.649,5.813
-0.521,-0.679,0.195,-44.979,-120.781,3.977
-0.518,-0.684,0.211,-44.310,-118.609,2.485
-0.515,-0.688,0.224,-43.788,-116.324,1.100
-0.513,-0.691,0.234,-43.316,-113.930,-0.190
-0.511,-0.694,0.242,-42.947,-111.782,-1.005
-0.510,-0.698,0.245,-42.168,-109.030,-1.819
-0.506,-0.704,0.251,-41.043,-106.355,-2.247
-0.506,-0.709,0.254,-40.114,-103.802,-2.731
-0.507,-0.714,0.256,-39.006,-101.769,-3.406
-0.507,-0.717,0.261,-38.031,-100.176,-4.129
-0.507,-0.719,0.269,-37.365,-98.836,-4.763
-0.506,-0.721,0.277,-36.901,-97.609,-5.302
-0.504,-0.724,0.287,-36.558,-96.296,-5.805
-0.502,-0.728,0.297,-36.311,-94.783,-6.268
-0.498,-0.732,0.306,-36.083,-92.939,-6.656
-0.494,-0.737,0.314,-35.817,-90.934,-6.971
-0.489,-0.741,0.322,-35.428,-88.852,-7.202
-0.486,-0.745,0.329,-34.922,-86.765,-7.383
-0.482,-0.749,0.334,-34.299,-84.708,-7.547
-0.479,-0.752,0.339,-33.575,-82.701,-7.657
-0.477,-0.755,0.343,-32.715,-80.756,-7.728
-0.475,-0.758,0.347,-31.812,-78.912,-7.795
-0.473,-0.760,0.350,-30.925,-77.196,-7.864
-0.471,-0.763,0.355,-30.212,-75.634,-7.915
-0.469,-0.764,0.361,-29.673,-74.226,-7.946
-0.466,-0.766,0.367,-29.239,-72.885,-7.975
-0.463,-0.767,0.373,-28.897,-71.549,-8.014
-0.460,-0.769,0.379,-28.594,-70.166,-8.054
-0.457,-0.771,0.384,-28.316,-68.680,-8.071
-0.454,-0.773,0.388,-28.048,-67.152,-8.043
-0.451,-0.775,0.391,-27.768,-65.619,-8.007
-0.449,-0.777,0.393,-27.461,-64.064,-7.959
-0.446,-0.780,0.394,-27.112,-62.555,-7.905
-0.444,-0.782,0.395,-26.696,-61.134,-7.830
-0.443,-0.784,0.396,-26.248,-59.834,-7.730
-0.442,-0.786,0.397,-25.778,-58.673,-7.612
-0.441,-0.788,0.400,-25.300,-57.654,-7.458
-0.439,-0.790,0.402,-24.863,-56.716,-7.283
-0.437,-0.792,0.404,-24.475,-55.758,-7.093
-0.435,-0.794,0.406,-24.143,-54.749,-6.878
-0.433,-0.794,0.409,-23.871,-53.686,-6.650
-0.431,-0.795,0.410,-23.624,-52.577,-6.410
-0.430,-0.796,0.412,-23.389,-51.473,-6.182
-0.429,-0.796,0.413,-23.155,-50.410,-5.981
-0.428,-0.796,0.414,-22.919,-49.418,-5.812
-0.427,-0.797,0.415,-22.688,-48.555,-5.661
-0.426,-0.797,0.416,-22.451,-47.797,-5.532
-0.425,-0.798,0.417,-22.212,-47.121,-5.412

-0.424,-0.722,0.762,-22.949,-46.823,-7.690
-0.419,-0.722,0.766,-23.581,-46.201,-9.874
-0.414,-0.724,0.771,-24.098,-45.380,-11.829
-0.408,-0.726,0.772,-24.553,-44.214,-13.538
-0.401,-0.729,0.773,-24.910,-42.602,-15.069
-0.395,-0.732,0.774,-25.279,-40.528,-16.451
-0.389,-0.737,0.774,-25.630,-38.070,-17.794
-0.384,-0.741,0.773,-25.992,-35.141,-19.158
-0.378,-0.745,0.773,-26.403,-31.977,-20.548
-0.373,-0.749,0.771,-26.950,-28.681,-21.947
-0.367,-0.752,0.769,-27.664,-25.355,-23.399
-0.362,-0.754,0.766,-28.669,-22.048,-24.929
-0.355,-0.754,0.762,-29.797,-18.728,-26.599
-0.348,-0.755,0.757,-31.028,-15.444,-28.411
-0.341,-0.757,0.756,-32.445,-12.474,-30.342
-0.333,-0.759,0.757,-35.306,-9.679,-32.227
-0.324,-0.761,0.759,-37.441,-6.633,-33.954
-0.314,-0.764,0.761,-39.449,-2.276,-35.578
-0.302,-0.767,0.762,-41.190,3.310,-37.120
-0.290,-0.770,0.763,-42.692,10.117,-38.538
-0.279,-0.773,0.764,-43.925,18.013,-39.837
-0.266,-0.775,0.765,-45.170,26.625,-40.859
-0.255,-0.777,0.765,-45.788,37.570,-42.015
-0.241,-0.780,0.764,-46.174,49.150,-42.834
-0.229,-0.785,0.756,-45.955,61.145,-43.295
-0.214,-0.792,0.745,-45.160,72.940,-43.424
-0.198,-0.804,0.727,-43.847,86.403,-43.033
-0.180,-0.817,0.702,-41.732,102.563,-42.232
-0.160,-0.833,0.661,-38.461,125.451,-40.645
-0.142,-0.852,0.614,-32.634,151.934,-38.154
-0.132,-0.869,0.565,-21.810,179.307,-35.726
-0.130,-0.885,0.512,-4.869,204.833,-33.278
-0.145,-0.890,0.470,14.120,225.479,-31.407
-0.176,-0.885,0.453,26.860,235.708,-29.473
-0.223,-0.877,0.448,32.294,237.999,-28.158
-0.275,-0.869,0.466,33.290,232.817,-27.892
-0.313,-0.860,0.495,32.144,226.170,-28.457
-0.308,-0.858,0.532,26.234,283.393,-30.912
-0.257,-0.868,0.524,17.355,323.183,-30.599
-0.269,-0.895,0.538,10.021,336.781,-30.311
-0.248,-0.918,0.544,4.728,344.685,-28.668
-0.239,-0.932,0.536,-0.096,342.617,-25.455
-0.226,-0.934,0.520,-2.875,335.061,-22.334
-0.215,-0.933,0.497,-4.232,324.914,-19.497
-0.205,-0.932,0.464,-4.742,313.611,-16.916
-0.198,-0.931,0.426,-4.876,302.399,-14.398
-0.194,-0.932,0.388,-4.696,291.565,-11.816
-0.191,-0.936,0.351,-3.934,281.218,-9.113
-0.190,-0.943,0.317,-1.946,271.362,-6.383
-0.191,-0.949,0.288,1.838,262.034,-3.628
-0.195,-0.952,0.263,7.451,253.191,-0.730
-0.199,-0.951,0.242,13.224,244.794,2.117
-0.204,-0.948,0.224,18.270,236.801,4.773
-0.211,-0.942,0.207,22.148,229.211,7.055
-0.218,-0.936,0.189,24.769,222.000,8.920
-0.225,-0.930,0.172,25.360,215.146,10.405
-0.233,-0.925,0.155,25.772,208.609,11.425
-0.240,-0.920,0.139,25.631,202.364,12.180
-0.248,-0.916,0.121,25.273,196.359,12.748
-0.255,-0.912,0.103,24.852,190.597,13.175
-0.263,-0.908,0.086,24.473,185.063,13.482
-0.270,-0.904,0.069,24.236,179.746,13.685
-0.276,-0.899,0.053,24.169,174.633,13.795
-0.283,-0.893,0.038,24.304,169.709,13.816
-0.290,-0.887,0.023,24.640,164.965,13.827
-0.297,-0.882,0.010,25.260,160.391,13.883
-0.304,-0.876,-0.002,25.582,155.976,14.075
-0.311,-0.872,-0.016,26.334,151.735,14.008
-0.318,-0.867,-0.029,27.317,147.646,13.747
-0.325,-0.862,-0.041,28.175,143.703,13.444
-0.331,-0.857,-0.052,28.748,139.892,13.199
-0.338,-0.854,-0.062,29.085,136.209,12.946
-0.344,-0.849,-0.072,29.322,132.650,12.574
-0.350,-0.846,-0.082,29.433,129.208,12.170
-0.355,-0.843,-0.090,29.458,125.882,11.786
-0.361,-0.839,-0.097,29.402,122.655,11.698
-0.366,-0.834,-0.103,29.447,119.571,11.248
-0.372,-0.830,-0.112,29.305,116.567,10.893
-0.377,-0.827,-0.119,28.883,113.649,10.608
-0.382,-0.825,-0.126,28.399,110.817,10.252
-0.388,-0.822,-0.131,27.803,108.068,9.936
-0.393,-0.821,-0.137,27.178,105.401,9.587
-0.399,-0.819,-0.142,26.534,102.806,9.287
-0.403,-0.818,-0.147,25.865,100.277,9.039
-0.408,-0.816,-0.153,25.192,97.817,8.788
-0.413,-0.815,-0.158,24.523,95.424,8.517
-0.417,-0.815,-0.163,23.884,93.099,8.246
-0.422,-0.815,-0.167,23.284,90.838,7.962
-0.426,-0.814,-0.170,22.713,88.633,7.680
-0.431,-0.814,-0.172,22.150,86.485,7.401
-0.435,-0.813,-0.174,21.577,84.390,7.119
-0.440,-0.813,-0.177,21.032,82.337,6.833
-0.444,-0.812,-0.179,20.515,80.266,6.559
-0.448,-0.812,-0.182,20.026,78.223,6.277
-0.452,-0.812,-0.185,19.567,76.252,5.992
-0.457,-0.812,-0.186,19.129,74.356,5.717
-0.460,-0.813,-0.188,18.756,72.493,5.458
-0.464,-0.814,-0.188,18.425,70.654,5.226
-0.468,-0.814,-0.188,18.102,68.847,5.027
-0.472,-0.815,-0.188,17.718,67.071,4.857
-0.475,-0.815,-0.188,17.293,65.325,4.708
-0.479,-0.816,-0.188,16.849,63.613,4.571
-0.482,-0.816,-0.188,16.394,61.940,4.446
-0.486,-0.817,-0.189,15.944,60.314,4.338
-0.490,-0.818,-0.189,15.524,58.732,4.245
-0.493,-0.819,-0.189,15.148,57.180,4.167
-0.497,-0.819,-0.190,14.801,55.616,4.087
-0.500,-0.819,-0.189,14.434,54.015,3.996
-0.503,-0.820,-0.189,13.992,52.399,3.919
-0.505,-0.821,-0.191,13.552,50.776,3.863
-0.507,-0.823,-0.192,13.162,49.206,3.821
-0.509,-0.824,-0.194,12.859,47.690,3.800
-0.510,-0.826,-0.195,12.612,46.195,3.810
-0.512,-0.827,-0.195,12.385,44.664,3.850
-0.514,-0.828,-0.194,12.161,43.089,3.911
-0.516,-0.829,-0.194,11.914,41.470,4.003
-0.517,-0.830,-0.194,11.645,39.795,4.126
-0.519,-0.830,-0.195,11.353,38.081,4.264
-0.520,-0.830,-0.195,11.041,36.286,4.413

0.205,1.003,0.708,12.244,20.446,-11.651
0.212,1.005,0.711,13.102,5.523,-28.184
0.217,1.009,0.715,13.351,-8.296,-44.921
0.224,1.012,0.717,13.354,-20.820,-61.592
0.229,1.016,0.718,13.255,-32.039,-78.096
0.232,1.020,0.719,13.015,-41.325,-93.224
0.234,1.025,0.719,12.698,-49.679,-107.724
0.236,1.028,0.720,12.266,-57.319,-122.074
0.238,1.028,0.719,11.931,-64.647,-136.165
0.241,1.029,0.716,11.891,-71.215,-149.103
0.243,1.030,0.713,12.071,-77.222,-161.048
0.243,1.034,0.710,12.179,-83.038,-171.746
0.244,1.042,0.707,11.774,-88.578,-181.827
0.249,1.048,0.705,9.215,-93.892,-193.199
0.255,1.049,0.701,6.448,-98.453,-205.150
0.264,1.043,0.697,4.138,-101.934,-216.378
0.276,1.028,0.699,2.784,-104.814,-228.031
0.286,1.008,0.703,2.456,-107.505,-237.290
0.301,0.993,0.713,1.831,-108.168,-242.887
0.317,0.975,0.725,0.701,-107.578,-245.129
0.331,0.954,0.741,-1.025,-106.167,-245.541
0.342,0.928,0.759,-3.309,-104.026,-244.698
0.350,0.901,0.777,-6.389,-101.580,-242.765
0.353,0.871,0.794,-10.543,-99.014,-239.977
0.353,0.834,0.810,-15.625,-96.456,-236.350
0.349,0.795,0.823,-21.218,-93.961,-232.201
0.342,0.753,0.832,-26.340,-91.479,-227.546
0.331,0.708,0.838,-30.331,-88.788,-222.435
0.318,0.662,0.841,-32.901,-86.184,-216.979
0.303,0.615,0.843,-33.591,-83.782,-211.207
0.286,0.570,0.844,-33.294,-81.626,-205.465
0.268,0.530,0.844,-32.376,-79.530,-199.869
0.248,0.495,0.845,-30.725,-77.507,-194.520
0.228,0.465,0.847,-28.624,-75.557,-189.484
0.208,0.440,0.849,-26.381,-73.680,-184.820
0.189,0.421,0.851,-24.300,-71.882,-180.437
0.169,0.404,0.853,-22.419,-70.165,-176.274
0.150,0.389,0.855,-20.765,-68.545,-171.930
0.132,0.375,0.857,-19.326,-66.998,-167.445
0.115,0.363,0.858,-18.084,-65.510,-162.890
0.097,0.353,0.860,-16.972,-64.082,-158.315
0.080,0.344,0.861,-15.933,-62.726,-153.778
0.063,0.337,0.862,-14.969,-61.400,-149.292
0.047,0.331,0.864,-14.096,-60.101,-144.935
0.032,0.328,0.865,-13.340,-58.809,-140.730
0.018,0.326,0.867,-12.670,-57.610,-136.836
0.004,0.325,0.868,-12.215,-56.329,-133.148
-0.008,0.325,0.870,-11.968,-55.102,-129.561
-0.021,0.326,0.871,-11.752,-53.847,-126.147
-0.033,0.326,0.871,-11.654,-52.621,-122.744
-0.044,0.327,0.872,-11.555,-51.452,-119.590
-0.055,0.328,0.873,-11.448,-50.295,-116.747
-0.065,0.329,0.874,-11.381,-49.145,-114.167
-0.075,0.331,0.875,-11.388,-48.007,-111.722
-0.084,0.333,0.877,-11.474,-46.895,-109.336
-0.092,0.335,0.878,-11.615,-45.801,-107.011
-0.100,0.337,0.878,-11.699,-44.646,-104.747
-0.108,0.342,0.879,-11.960,-43.675,-102.543
-0.117,0.343,0.881,-12.184,-42.669,-100.403
-0.124,0.344,0.882,-12.393,-41.652,-98.315
-0.132,0.345,0.882,-12.570,-40.755,-96.289
-0.140,0.345,0.883,-12.745,-39.917,-94.307
-0.147,0.345,0.883,-12.755,-39.198,-92.389
-0.154,0.345,0.883,-12.708,-38.437,-90.520
-0.161,0.345,0.884,-12.610,-37.687,-88.692
-0.167,0.345,0.885,-12.433,-36.969,-86.908
-0.173,0.345,0.886,-12.211,-36.286,-85.164
-0.178,0.344,0.887,-11.915,-35.633,-83.447
-0.183,0.344,0.888,-11.575,-35.026,-81.690
-0.188,0.344,0.890,-11.180,-34.506,-79.906
-0.193,0.344,0.892,-10.751,-34.020,-78.143
-0.197,0.344,0.895,-10.342,-33.549,-76.421
-0.201,0.344,0.897,-9.940,-33.091,-74.739
-0.205,0.344,0.899,-9.531,-32.636,-73.093
-0.209,0.344,0.901,-9.137,-32.166,-71.491
-0.212,0.344,0.904,-8.770,-31.667,-69.961
-0.215,0.345,0.906,-8.452,-31.160,-68.484
-0.219,0.345,0.908,-8.170,-30.632,-67.056
-0.222,0.345,0.910,-7.913,-30.088,-65.677
-0.225,0.345,0.912,-7.662,-29.531,-64.350
-0.228,0.345,0.913,-7.415,-28.967,-63.073
-0.231,0.344,0.915,-7.196,-28.386,-61.850
-0.234,0.344,0.917,-7.034,-27.794,-60.661
-0.236,0.343,0.919,-6.912,-27.193,-59.515
-0.238,0.342,0.920,-6.815,-26.581,-58.390
-0.241,0.341,0.922,-6.729,-25.967,-57.286
-0.244,0.340,0.923,-6.649,-25.360,-56.223
-0.246,0.338,0.924,-6.594,-24.760,-55.179
-0.249,0.337,0.925,-6.579,-24.172,-54.151
-0.252,0.334,0.926,-6.575,-23.595,-53.142
-0.255,0.331,0.927,-6.582,-23.021,-52.128
-0.258,0.329,0.928,-6.598,-22.451,-51.065
-0.261,0.326,0.929,-6.625,-21.895,-49.962
-0.264,0.323,0.930,-6.645,-21.338,-48.822
-0.267,0.320,0.931,-6.656,-20.777,-47.607
-0.269,0.316,0.932,-6.654,-20.217,-46.360
-0.273,0.313,0.933,-6.640,-19.662,-45.088
-0.276,0.310,0.934,-6.645,-19.106,-43.790
-0.279,0.307,0.935,-6.658,-18.548,-42.477
-0.282,0.303,0.936,-6.685,-17.986,-41.131
-0.285,0.300,0.937,-6.723,-17.418,-39.780
-0.288,0.297,0.938,-6.797,-16.812,-38.447
-0.290,0.293,0.940,-6.937,-16.178,-37.101
-0.292,0.289,0.942,-7.147,-15.504,-35.729
-0.294,0.285,0.944,-7.428,-14.781,-34.296
-0.296,0.281,0.946,-7.770,-14.027,-32.803
-0.297,0.276,0.948,-8.152,-13.203,-31.235
-0.299,0.271,0.949,-8.545,-12.339,-29.503
-0.301,0.266,0.950,-8.906,-11.454,-27.680
-0.303,0.261,0.951,-9.234,-10.547,-25.756
-0.305,0.256,0.952,-9.522,-9.577,-23.722
-0.307,0.251,0.953,-9.769,-8.610,-21.621
-0.310,0.246,0.953,-9.984,-7.625,-19.405
-0.312,0.242,0.954,-10.185,-6.636,-17.131
-0.314,0.237,0.955,-10.399,-5.624,-14.802
-0.316,0.233,0.956,-10.640,-4.587,-12.411
-0.318,0.230,0.957,-10.951,-3.548,-9.949
-0.320,0.226,0.958,-11.322,-2.493,-7.486
-0.322,0.223,0.959,-11.743,-1.434,-5.014

0.355,0.987,0.566,-11.154,-16.367,-17.460
0.356,0.976,0.578,-10.390,-31.087,-29.635
0.353,0.966,0.590,-9.786,-45.525,-41.437
0.348,0.959,0.602,-9.741,-59.501,-53.607
0.342,0.956,0.610,-10.133,-71.268,-65.958
0.331,0.956,0.610,-10.751,-80.275,-78.484
0.318,0.962,0.605,-11.237,-88.055,-90.951
0.304,0.970,0.596,-11.447,-95.251,-102.599
0.292,0.978,0.585,-11.431,-102.174,-113.524
0.282,0.984,0.573,-11.241,-109.063,-123.717
0.277,0.989,0.564,-11.014,-116.101,-132.966
0.275,0.993,0.556,-10.742,-123.072,-141.484
0.276,0.994,0.549,-10.433,-130.362,-149.316
0.278,0.994,0.542,-9.959,-137.737,-156.437
0.283,0.992,0.537,-9.456,-144.455,-162.700
0.288,0.985,0.535,-9.042,-150.611,-169.669
0.296,0.983,0.532,-8.332,-154.793,-174.989
0.306,0.977,0.532,-7.851,-157.369,-178.767
0.314,0.967,0.535,-7.364,-158.937,-181.707
0.321,0.955,0.540,-6.751,-159.751,-184.080
0.326,0.943,0.549,-6.047,-159.635,-185.910
0.331,0.930,0.561,-5.355,-158.833,-187.155
0.335,0.918,0.575,-4.771,-157.452,-187.802
0.337,0.906,0.591,-4.523,-155.681,-188.078
0.338,0.894,0.609,-4.605,-153.620,-188.184
0.338,0.882,0.629,-5.133,-151.180,-188.198
0.337,0.869,0.650,-6.295,-148.600,-188.107
0.335,0.855,0.671,-9.220,-145.906,-187.782
0.332,0.837,0.690,-11.854,-143.108,-187.175
0.328,0.818,0.708,-14.818,-140.239,-186.248
0.323,0.797,0.723,-17.831,-137.251,-184.903
0.318,0.775,0.736,-20.628,-134.175,-182.997
0.311,0.750,0.748,-22.860,-131.176,-180.462
0.303,0.727,0.757,-24.677,-128.158,-177.607
0.297,0.703,0.766,-26.193,-125.108,-174.609
0.286,0.679,0.775,-27.413,-122.197,-171.451
0.275,0.656,0.782,-28.228,-119.385,-168.187
0.264,0.634,0.790,-28.805,-116.617,-164.777
0.252,0.613,0.796,-29.141,-113.915,-161.326
0.239,0.592,0.803,-29.320,-111.280,-157.876
0.225,0.573,0.810,-29.329,-108.732,-154.445
0.211,0.554,0.816,-29.192,-106.271,-151.052
0.197,0.536,0.822,-28.925,-103.865,-147.711
0.184,0.519,0.828,-28.554,-101.500,-144.454
0.170,0.503,0.835,-28.125,-99.182,-141.287
0.161,0.489,0.841,-27.650,-96.891,-138.215
0.149,0.475,0.848,-27.165,-94.660,-135.244
0.137,0.462,0.854,-26.604,-92.439,-132.374
0.125,0.451,0.861,-26.138,-90.300,-129.601
0.113,0.440,0.868,-25.522,-88.198,-126.916
0.102,0.431,0.875,-25.128,-86.354,-123.762
0.090,0.422,0.880,-24.726,-84.325,-120.839
0.078,0.415,0.885,-24.266,-82.262,-117.688
0.066,0.409,0.890,-23.787,-80.039,-114.548
0.054,0.403,0.895,-23.387,-77.604,-111.628
0.042,0.398,0.900,-23.104,-75.010,-108.693
0.029,0.393,0.905,-22.962,-72.691,-105.598
0.017,0.388,0.909,-22.868,-70.501,-102.522
0.005,0.384,0.912,-22.782,-68.268,-99.448
-0.007,0.379,0.916,-22.702,-66.086,-96.255
-0.018,0.376,0.919,-22.592,-63.968,-92.979
-0.029,0.372,0.923,-22.495,-61.840,-89.730
-0.040,0.370,0.926,-22.490,-59.703,-86.473
-0.050,0.367,0.930,-22.585,-57.602,-83.179
-0.060,0.364,0.933,-22.731,-55.533,-79.823
-0.069,0.360,0.935,-22.854,-53.463,-76.359
-0.078,0.355,0.937,-22.889,-51.418,-72.810
-0.086,0.350,0.939,-22.841,-49.325,-69.217
-0.093,0.346,0.942,-22.728,-47.230,-65.559
-0.101,0.342,0.944,-22.542,-45.059,-61.869
-0.108,0.339,0.947,-22.323,-42.846,-58.039
-0.114,0.337,0.949,-22.124,-40.549,-54.198
-0.121,0.335,0.952,-21.990,-38.251,-50.228
-0.127,0.333,0.955,-21.869,-35.753,-46.361
-0.133,0.333,0.957,-21.857,-33.318,-42.460
-0.139,0.331,0.959,-21.914,-30.887,-38.598
-0.145,0.330,0.961,-21.984,-28.317,-34.677
-0.151,0.328,0.963,-22.077,-25.793,-30.725
-0.156,0.326,0.965,-22.184,-23.204,-26.777
-0.161,0.324,0.966,-22.313,-20.514,-22.854
-0.166,0.321,0.968,-22.415,-17.883,-18.999
-0.171,0.318,0.969,-22.474,-15.259,-15.206
-0.176,0.315,0.970,-22.459,-12.669,-11.406
-0.182,0.312,0.970,-22.392,-10.141,-7.660
-0.187,0.310,0.971,-22.294,-7.665,-3.960
-0.192,0.308,0.971,-22.182,-5.253,-0.292
-0.197,0.306,0.972,-22.082,-2.915,3.314
-0.202,0.305,0.972,-21.987,-0.611,6.936
-0.206,0.304,0.972,-21.918,1.646,10.473
-0.211,0.303,0.972,-21.874,3.909,13.924
-0.214,0.303,0.972,-21.884,6.222,17.296
-0.218,0.303,0.971,-21.968,8.510,20.654
-0.221,0.304,0.971,-22.119,10.796,23.935
-0.224,0.304,0.970,-22.369,13.041,27.179
-0.227,0.303,0.969,-22.649,15.221,30.328
-0.230,0.302,0.968,-22.936,17.351,33.423
-0.233,0.301,0.966,-23.176,19.411,36.507
-0.236,0.300,0.963,-23.328,21.397,39.570
-0.238,0.298,0.961,-23.403,23.287,42.626
-0.241,0.297,0.958,-23.417,25.081,45.685
-0.244,0.297,0.956,-23.370,26.816,48.785
-0.246,0.297,0.954,-23.327,28.486,51.783
-0.248,0.297,0.952,-23.271,30.099,54.690
-0.249,0.298,0.949,-23.200,31.676,57.537
-0.251,0.299,0.947,-23.148,33.167,60.300
-0.253,0.301,0.944,-23.128,34.628,62.957
-0.254,0.302,0.941,-23.180,36.033,65.603
-0.256,0.302,0.939,-23.327,37.383,68.169
-0.256,0.302,0.936,-23.463,38.735,70.686
-0.257,0.302,0.934,-23.538,40.035,73.125
-0.257,0.301,0.932,-23.550,41.320,75.485
-0.257,0.301,0.931,-23.508,42.589,77.816
-0.257,0.302,0.929,-23.436,43.810,80.116
-0.257,0.304,0.928,-23.391,44.973,82.385
-0.257,0.306,0.927,-23.433,46.122,84.620
-0.257,0.308,0.925,-23.547,47.273,86.791
-0.256,0.311,0.924,-23.715,48.465,88.890
-0.256,0.313,0.922,-23.927,49.611,90.890
-0.255,0.316,0.920,-24.142,50.747,92.813

0.253,1.148,0.514,-24.252,49.405,89.159
0.261,1.155,0.509,-24.225,47.774,84.499
0.267,1.163,0.504,-24.208,45.540,78.847
0.273,1.170,0.498,-24.256,42.102,72.357
0.280,1.177,0.490,-24.167,37.567,65.328
0.287,1.182,0.482,-23.857,32.186,58.263
0.292,1.187,0.473,-23.321,26.045,51.390
0.297,1.190,0.465,-22.663,19.068,44.464
0.301,1.193,0.455,-21.708,11.305,37.068
0.304,1.195,0.443,-20.555,2.677,29.487
0.307,1.198,0.432,-19.256,-6.845,21.912
0.311,1.200,0.423,-17.882,-16.872,14.191
0.314,1.201,0.417,-16.353,-27.445,6.160
0.318,1.201,0.415,-14.776,-38.241,-1.972
0.322,1.199,0.417,-13.205,-48.890,-10.162
0.326,1.195,0.421,-11.755,-59.249,-18.997
0.329,1.191,0.426,-10.509,-69.229,-27.926
0.330,1.186,0.432,-9.631,-78.991,-36.960
0.329,1.180,0.438,-8.928,-88.483,-46.166
0.327,1.172,0.442,-8.324,-97.634,-55.516
0.324,1.165,0.445,-7.832,-106.257,-64.859
0.319,1.157,0.447,-7.477,-114.349,-73.940
0.313,1.150,0.448,-7.248,-121.889,-82.827
0.307,1.144,0.449,-7.153,-129.176,-91.424
0.300,1.137,0.450,-7.234,-135.640,-99.319
0.294,1.129,0.454,-7.509,-141.375,-106.778
0.288,1.117,0.459,-7.794,-146.869,-113.996
0.283,1.105,0.465,-8.033,-152.389,-120.847
0.278,1.092,0.472,-8.281,-157.242,-127.213
0.273,1.075,0.482,-8.503,-162.108,-133.292
0.270,1.057,0.492,-8.481,-165.824,-138.036
0.269,1.039,0.503,-8.344,-168.402,-141.358
0.270,1.019,0.516,-8.142,-170.119,-143.819
0.272,1.000,0.530,-7.862,-170.878,-145.728
0.274,0.981,0.545,-7.394,-171.370,-148.191
0.278,0.966,0.560,-7.194,-170.162,-149.604
0.282,0.951,0.576,-7.548,-168.163,-150.427
0.284,0.936,0.592,-8.417,-165.568,-150.839
0.286,0.920,0.608,-9.787,-162.224,-150.733
0.288,0.902,0.623,-11.585,-158.587,-150.017
0.289,0.884,0.638,-13.728,-154.791,-148.702
0.289,0.864,0.652,-16.120,-150.892,-146.752
0.286,0.841,0.665,-18.473,-147.030,-144.555
0.281,0.818,0.677,-20.639,-143.264,-142.156
0.273,0.794,0.689,-22.499,-139.639,-139.609
0.264,0.769,0.702,-24.067,-136.138,-137.020
0.254,0.745,0.715,-25.384,-132.747,-134.422
0.243,0.721,0.728,-26.457,-129.458,-131.873
0.232,0.699,0.743,-27.525,-126.269,-129.384
0.221,0.677,0.757,-28.712,-123.183,-126.928
0.210,0.656,0.772,-30.043,-120.193,-124.504
0.198,0.634,0.785,-31.255,-117.298,-122.081
0.186,0.612,0.797,-32.050,-114.488,-119.651
0.174,0.590,0.808,-32.423,-111.756,-117.253
0.162,0.568,0.818,-32.377,-109.101,-114.891
0.148,0.548,0.828,-32.010,-106.522,-112.588
0.135,0.531,0.838,-31.457,-104.020,-110.081
0.122,0.516,0.847,-30.704,-101.594,-107.556
0.110,0.505,0.857,-29.869,-99.233,-104.840
0.098,0.497,0.866,-29.244,-96.929,-101.657
0.086,0.489,0.875,-28.822,-94.713,-98.559
0.074,0.483,0.880,-28.347,-92.340,-95.699
0.065,0.479,0.888,-28.086,-90.218,-92.366
0.054,0.474,0.894,-27.848,-87.972,-89.524
0.044,0.470,0.899,-27.625,-85.297,-86.883
0.034,0.464,0.905,-27.479,-82.349,-84.258
0.026,0.458,0.911,-27.443,-79.165,-81.450
0.018,0.451,0.916,-27.487,-75.897,-78.528
0.010,0.444,0.921,-27.547,-72.510,-75.369
0.002,0.436,0.926,-27.514,-69.088,-71.909
-0.005,0.428,0.931,-27.336,-65.603,-68.149
-0.013,0.420,0.935,-27.010,-61.970,-64.149
-0.020,0.412,0.940,-26.580,-58.283,-59.929
-0.028,0.406,0.945,-26.056,-54.552,-55.422
-0.035,0.401,0.949,-25.513,-50.827,-50.864
-0.042,0.397,0.954,-25.016,-47.205,-46.276
-0.050,0.394,0.959,-24.572,-43.359,-41.765
-0.056,0.392,0.964,-24.228,-39.666,-37.168
-0.063,0.390,0.967,-23.963,-35.986,-32.600
-0.069,0.388,0.971,-23.763,-32.244,-28.074
-0.075,0.386,0.974,-23.615,-28.522,-23.634
-0.081,0.384,0.976,-23.533,-24.801,-19.305
-0.087,0.383,0.978,-23.525,-21.088,-15.040
-0.093,0.381,0.979,-23.554,-17.414,-10.873
-0.099,0.380,0.979,-23.574,-13.819,-6.810
-0.104,0.378,0.979,-23.570,-10.316,-2.795
-0.109,0.376,0.978,-23.530,-6.833,1.198
-0.114,0.374,0.978,-23.448,-3.410,5.184
-0.119,0.373,0.977,-23.364,-0.023,9.066
-0.123,0.372,0.977,-23.297,3.290,12.867
-0.128,0.372,0.976,-23.234,6.575,16.613
-0.132,0.371,0.974,-23.176,9.778,20.256
-0.137,0.371,0.973,-23.111,12.821,23.722
-0.141,0.370,0.971,-23.038,15.758,27.025
-0.146,0.370,0.969,-22.977,18.642,30.276
-0.150,0.369,0.967,-22.909,21.408,33.473
-0.154,0.369,0.964,-22.842,24.034,36.534
-0.158,0.370,0.962,-22.793,26.487,39.416
-0.162,0.370,0.960,-22.775,28.865,42.133
-0.166,0.370,0.957,-22.787,31.144,44.766
-0.169,0.371,0.955,-22.815,33.322,47.348
-0.173,0.372,0.953,-22.894,35.402,49.867
-0.176,0.373,0.950,-23.001,37.438,52.290
-0.179,0.373,0.948,-23.133,39.443,54.628
-0.182,0.374,0.945,-23.296,41.377,56.820
-0.185,0.375,0.942,-23.475,43.206,58.895
-0.188,0.376,0.939,-23.627,44.988,60.918
-0.191,0.376,0.935,-23.657,46.704,62.863
-0.194,0.376,0.931,-23.534,48.361,64.802
-0.196,0.376,0.928,-23.463,49.848,66.769
-0.200,0.378,0.924,-23.507,51.250,68.753
-0.203,0.379,0.920,-23.608,52.524,70.658
-0.206,0.381,0.916,-23.720,53.680,72.484
-0.209,0.383,0.912,-23.815,54.718,74.269
-0.212,0.385,0.909,-23.918,55.688,75.948
-0.215,0.388,0.905,-24.038,56.544,77.484
-0.217,0.391,0.902,-24.227,57.282,78.899
-0.220,0.395,0.898,-24.476,57.947,80.170
-0.223,0.398,0.895,-24.755,58.531,81.339

0.217,1.080,0.621,-23.943,53.335,76.747
0.223,1.091,0.619,-23.721,48.243,71.037
0.229,1.102,0.615,-23.937,43.013,64.595
0.234,1.109,0.610,-24.302,37.503,57.061
0.240,1.113,0.603,-24.379,31.571,49.101
0.245,1.116,0.596,-24.197,25.275,40.923
0.250,1.118,0.588,-23.831,18.629,32.377
0.252,1.120,0.581,-23.312,10.851,23.688
0.253,1.121,0.575,-22.670,2.497,14.780
0.253,1.122,0.571,-21.731,-6.367,5.476
0.252,1.123,0.568,-20.457,-15.653,-4.576
0.250,1.122,0.565,-18.966,-25.061,-15.050
0.247,1.120,0.562,-17.453,-34.517,-25.762
0.242,1.121,0.556,-15.650,-44.038,-36.933
0.236,1.128,0.550,-13.503,-53.353,-48.279
0.229,1.137,0.545,-11.764,-62.558,-60.461
0.222,1.151,0.541,-10.626,-72.607,-73.105
0.216,1.166,0.536,-10.392,-84.603,-86.136
0.215,1.178,0.528,-10.733,-95.938,-99.894
0.219,1.179,0.518,-11.104,-105.594,-113.458
0.229,1.173,0.509,-11.056,-113.416,-125.926
0.242,1.162,0.503,-10.584,-119.751,-136.560
0.255,1.147,0.502,-9.708,-124.675,-145.061
0.269,1.131,0.505,-8.501,-128.573,-151.540
0.281,1.113,0.510,-7.005,-131.257,-156.366
0.293,1.095,0.518,-5.649,-132.922,-160.185
0.300,1.077,0.530,-4.453,-134.309,-162.946
0.304,1.058,0.545,-3.540,-135.082,-164.900
0.307,1.040,0.562,-2.998,-135.276,-166.331
0.309,1.021,0.579,-3.372,-134.908,-167.107
0.310,1.002,0.597,-3.657,-134.095,-167.358
0.308,0.980,0.614,-4.256,-132.905,-167.212
0.305,0.958,0.630,-5.154,-131.261,-166.692
0.302,0.935,0.645,-6.291,-129.398,-165.800
0.297,0.912,0.659,-7.528,-127.350,-164.415
0.293,0.887,0.671,-8.828,-125.141,-162.720
0.288,0.863,0.682,-10.162,-122.798,-160.793
0.282,0.839,0.692,-11.542,-120.347,-158.634
0.275,0.815,0.700,-12.870,-117.868,-156.249
0.268,0.789,0.707,-13.960,-115.428,-153.613
0.259,0.763,0.714,-14.561,-113.028,-150.853
0.252,0.741,0.720,-14.950,-110.491,-148.240
0.240,0.719,0.729,-15.328,-108.054,-145.451
0.227,0.697,0.739,-15.636,-105.775,-142.581
0.216,0.679,0.748,-15.927,-103.508,-139.722
0.206,0.662,0.758,-16.448,-101.218,-136.918
0.195,0.647,0.767,-17.121,-98.950,-134.159
0.184,0.632,0.775,-17.909,-96.715,-131.445
0.172,0.618,0.782,-18.701,-94.530,-128.784
0.160,0.603,0.788,-19.462,-92.393,-126.180
0.147,0.589,0.794,-20.133,-90.308,-123.629
0.136,0.575,0.798,-20.756,-88.180,-121.131
0.125,0.563,0.803,-21.322,-86.051,-118.687
0.113,0.550,0.806,-21.749,-83.938,-116.309
0.102,0.539,0.809,-22.106,-81.854,-113.993
0.091,0.529,0.813,-22.469,-79.561,-111.685
0.080,0.519,0.816,-22.823,-77.417,-109.279
0.068,0.509,0.820,-23.120,-75.428,-106.888
0.056,0.500,0.824,-23.365,-73.428,-104.505
0.044,0.491,0.828,-23.531,-71.525,-102.054
0.031,0.483,0.833,-23.753,-69.477,-99.490
0.020,0.474,0.836,-23.861,-67.990,-97.070
0.007,0.467,0.841,-23.860,-66.601,-94.935
-0.003,0.461,0.846,-23.891,-64.860,-92.721
-0.013,0.455,0.852,-23.972,-62.720,-90.358
-0.023,0.450,0.858,-24.189,-60.515,-87.752
-0.033,0.446,0.864,-24.449,-58.522,-85.136
-0.043,0.441,0.870,-24.790,-56.605,-82.545
-0.052,0.436,0.875,-25.189,-54.627,-79.714
-0.062,0.430,0.880,-25.456,-52.608,-76.833
-0.071,0.424,0.884,-25.621,-50.460,-73.932
-0.080,0.418,0.889,-25.705,-48.295,-70.969
-0.089,0.412,0.894,-25.741,-46.192,-67.981
-0.097,0.407,0.899,-25.765,-44.137,-64.944
-0.105,0.403,0.904,-25.812,-42.141,-61.936
-0.112,0.399,0.910,-25.922,-39.756,-58.892
-0.119,0.395,0.914,-26.102,-37.478,-55.611
-0.125,0.391,0.919,-26.329,-35.321,-52.401
-0.131,0.387,0.924,-26.608,-33.124,-49.192
-0.136,0.383,0.928,-26.897,-30.876,-46.008
-0.142,0.378,0.931,-26.654,-28.616,-42.745
-0.148,0.374,0.933,-26.889,-26.396,-39.434
-0.154,0.369,0.936,-27.041,-24.143,-36.088
-0.160,0.365,0.938,-27.153,-21.811,-32.747
-0.165,0.361,0.940,-27.248,-19.513,-29.445
-0.170,0.358,0.942,-27.376,-17.186,-26.097
-0.175,0.356,0.944,-27.555,-14.858,-22.769
-0.180,0.353,0.947,-27.820,-12.499,-19.527
-0.184,0.351,0.949,-28.167,-10.083,-16.289
-0.188,0.347,0.951,-28.534,-7.645,-13.012
-0.192,0.343,0.952,-28.841,-5.166,-9.656
-0.197,0.339,0.953,-29.071,-2.808,-6.287
-0.201,0.334,0.953,-29.227,-0.591,-2.855
-0.207,0.331,0.952,-29.339,1.429,0.604
-0.211,0.327,0.952,-29.426,3.295,4.106
-0.216,0.324,0.952,-29.512,5.085,7.653
-0.220,0.321,0.951,-29.575,6.895,11.222
-0.223,0.319,0.950,-29.603,8.650,14.717
-0.226,0.317,0.950,-29.649,10.390,18.063
-0.229,0.316,0.950,-29.770,12.109,21.278
-0.232,0.315,0.950,-29.961,13.872,24.413
-0.234,0.314,0.950,-30.203,15.663,27.461
-0.236,0.313,0.949,-30.489,17.428,30.406
-0.239,0.312,0.948,-30.794,19.137,33.298
-0.241,0.311,0.946,-31.145,20.799,36.128
-0.243,0.309,0.944,-31.532,22.359,38.869
-0.245,0.306,0.942,-31.914,23.755,41.606
-0.247,0.304,0.941,-32.306,25.082,44.327
-0.248,0.303,0.939,-32.731,26.431,47.018
-0.248,0.301,0.937,-33.215,27.790,49.552
-0.248,0.301,0.936,-33.764,29.168,51.880
-0.247,0.301,0.935,-34.423,30.539,53.987
-0.246,0.302,0.933,-35.312,31.962,55.936
-0.245,0.302,0.931,-36.334,33.419,57.836
-0.243,0.303,0.929,-37.415,34.808,59.694
-0.243,0.303,0.927,-38.542,36.057,61.581
-0.244,0.303,0.924,-39.621,37.171,63.542
-0.245,0.302,0.920,-40.672,38.131,65.550
-0.247,0.301,0.917,-41.692,38.883,67.573

0.190,0.967,0.766,-39.203,34.749,58.766
0.194,0.976,0.766,-36.893,30.640,49.330
0.199,0.983,0.765,-34.847,26.597,39.475
0.205,0.988,0.764,-32.925,22.605,29.201
0.212,0.993,0.763,-31.065,18.610,18.540
0.218,0.998,0.763,-29.376,14.563,7.622
0.224,1.003,0.761,-27.848,10.530,-3.442
0.230,1.009,0.758,-26.576,6.492,-14.701
0.235,1.013,0.756,-25.594,2.498,-25.960
0.241,1.015,0.753,-24.888,-1.483,-37.285
0.247,1.017,0.750,-24.279,-5.419,-48.211
0.251,1.019,0.747,-23.752,-9.309,-58.737
0.255,1.020,0.743,-23.322,-13.209,-68.856
0.258,1.021,0.740,-22.993,-17.111,-78.662
0.260,1.020,0.736,-22.732,-20.856,-88.066
0.262,1.018,0.732,-22.479,-24.489,-97.025
0.263,1.015,0.729,-22.227,-28.066,-105.680
0.264,1.010,0.727,-21.953,-31.678,-113.992
0.264,1.005,0.726,-21.666,-35.375,-122.153
0.263,0.997,0.726,-21.409,-39.172,-130.500
0.262,0.990,0.727,-21.200,-43.081,-138.831
0.258,0.982,0.728,-21.207,-47.133,-147.245
0.254,0.973,0.730,-21.510,-51.577,-155.632
0.248,0.963,0.731,-22.133,-56.309,-164.149
0.241,0.951,0.734,-22.990,-61.229,-173.229
0.233,0.937,0.735,-23.951,-66.232,-182.817
0.225,0.922,0.737,-25.065,-71.328,-192.415
0.217,0.905,0.741,-26.393,-76.349,-201.812
0.211,0.885,0.748,-27.856,-81.138,-211.078
0.207,0.864,0.755,-29.215,-85.550,-219.951
0.203,0.841,0.764,-30.477,-89.725,-227.747
0.200,0.816,0.777,-31.810,-93.891,-233.685
0.199,0.787,0.795,-33.243,-97.194,-237.714
0.202,0.755,0.813,-34.543,-99.380,-240.078
0.207,0.722,0.828,-35.903,-100.650,-239.976
0.215,0.693,0.838,-37.300,-101.264,-237.968
0.222,0.665,0.843,-38.969,-101.385,-234.609
0.230,0.636,0.843,-40.680,-100.859,-230.476
0.239,0.603,0.842,-41.797,-99.902,-225.860
0.248,0.562,0.840,-41.785,-98.653,-220.752
0.256,0.522,0.838,-41.128,-97.177,-215.449
0.263,0.484,0.838,-39.702,-95.445,-210.072
0.267,0.446,0.842,-37.362,-93.585,-204.760
0.268,0.411,0.849,-34.368,-91.625,-199.633
0.267,0.379,0.858,-30.983,-89.613,-194.891
0.264,0.351,0.868,-27.629,-87.595,-190.482
0.259,0.325,0.879,-24.473,-85.505,-186.320
0.250,0.302,0.891,-21.628,-83.616,-182.278
0.239,0.281,0.902,-19.334,-81.786,-178.042
0.228,0.262,0.914,-17.724,-79.975,-173.586
0.216,0.247,0.922,-16.338,-77.496,-168.502
0.206,0.232,0.927,-15.084,-76.066,-164.016
0.191,0.222,0.938,-14.378,-73.869,-160.472
0.184,0.213,0.947,-14.246,-71.239,-155.950
0.171,0.206,0.952,-14.269,-69.688,-151.578
0.155,0.200,0.957,-14.489,-68.226,-147.345
0.143,0.195,0.960,-14.753,-66.656,-143.084
0.132,0.189,0.961,-14.986,-64.910,-138.856
0.120,0.183,0.962,-15.035,-63.257,-134.827
0.108,0.177,0.965,-14.954,-61.416,-130.526
0.094,0.172,0.964,-14.436,-60.157,-126.779
0.081,0.169,0.965,-13.780,-58.410,-123.230
0.069,0.166,0.967,-13.104,-56.551,-119.525
0.056,0.163,0.970,-12.303,-54.873,-116.106
0.043,0.162,0.975,-11.591,-53.332,-112.844
0.032,0.162,0.979,-11.150,-51.928,-109.749
0.020,0.162,0.984,-11.003,-50.722,-106.838
0.008,0.162,0.989,-11.089,-49.621,-104.094
-0.003,0.162,0.993,-11.418,-48.571,-101.489
-0.013,0.160,0.997,-11.830,-47.508,-99.019
-0.023,0.156,0.999,-12.184,-46.397,-96.633
-0.032,0.153,1.001,-12.346,-45.262,-94.280
-0.041,0.148,1.004,-12.360,-44.111,-91.897
-0.049,0.144,1.006,-12.264,-42.997,-89.449
-0.057,0.140,1.009,-12.062,-41.910,-86.941
-0.065,0.136,1.013,-11.794,-40.896,-84.279
-0.072,0.132,1.018,-11.543,-39.886,-81.493
-0.078,0.129,1.022,-11.324,-38.872,-78.570
-0.084,0.126,1.027,-11.150,-37.861,-75.511
-0.089,0.122,1.032,-10.995,-36.832,-72.191
-0.095,0.118,1.037,-10.816,-35.765,-68.683
-0.100,0.115,1.042,-10.605,-34.685,-64.993
-0.104,0.112,1.047,-10.340,-33.573,-61.066
-0.108,0.109,1.052,-10.060,-32.433,-57.062
-0.112,0.107,1.057,-9.814,-31.176,-52.975
-0.115,0.106,1.061,-9.645,-29.860,-48.847
-0.117,0.105,1.065,-9.571,-28.422,-44.687
-0.119,0.105,1.069,-9.624,-26.846,-40.393
-0.121,0.106,1.072,-9.791,-25.075,-36.094
-0.123,0.106,1.073,-10.119,-23.261,-31.935
-0.124,0.106,1.073,-10.609,-21.376,-27.841
-0.125,0.106,1.071,-11.242,-19.418,-23.773
-0.126,0.106,1.068,-11.915,-17.345,-19.641
-0.127,0.105,1.063,-12.509,-15.316,-15.466
-0.127,0.103,1.058,-12.927,-13.306,-11.203
-0.127,0.101,1.054,-13.012,-11.335,-6.870
-0.127,0.099,1.049,-12.865,-9.386,-2.481
-0.126,0.097,1.046,-12.493,-7.474,1.919
-0.126,0.097,1.043,-11.942,-5.607,6.333
-0.127,0.099,1.042,-11.317,-3.796,10.820
-0.127,0.101,1.041,-10.775,-2.031,15.210
-0.128,0.104,1.040,-10.387,-0.323,19.483
-0.129,0.107,1.039,-10.208,1.307,23.644
-0.131,0.109,1.038,-10.246,2.862,27.613
-0.132,0.110,1.037,-10.405,4.367,31.384
-0.133,0.111,1.036,-10.598,5.836,35.039
-0.134,0.112,1.034,-10.749,7.236,38.621
-0.135,0.113,1.033,-10.853,8.540,42.161
-0.135,0.114,1.031,-10.889,9.864,45.600
-0.136,0.115,1.030,-10.817,11.222,48.969
-0.136,0.116,1.029,-10.648,12.599,52.409
-0.136,0.118,1.028,-10.386,13.994,55.861
-0.137,0.121,1.027,-10.064,15.413,59.298
-0.137,0.124,1.027,-9.702,16.875,62.700
-0.138,0.129,1.026,-9.412,18.347,65.970
-0.138,0.133,1.025,-9.256,19.845,68.987
-0.139,0.137,1.025,-9.212,21.360,71.813
-0.139,0.141,1.024,-9.301,22.856,74.466
-0.140,0.146,1.022,-9.493,24.303,76.915

0.201,0.920,0.791,-12.439,5.074,37.865
0.206,0.921,0.796,-16.448,-11.922,4.506
0.214,0.918,0.804,-21.407,-26.620,-23.356
0.226,0.914,0.810,-27.772,-38.845,-46.216
0.239,0.906,0.815,-34.829,-49.322,-65.341
0.254,0.894,0.819,-42.432,-57.954,-81.336
0.273,0.876,0.820,-49.628,-63.966,-94.608
0.293,0.853,0.821,-55.299,-68.165,-104.384
0.310,0.823,0.823,-59.567,-70.908,-111.553
0.325,0.789,0.823,-62.589,-72.242,-116.298
0.336,0.754,0.825,-64.656,-72.529,-119.047
0.343,0.719,0.828,-66.004,-72.342,-120.222
0.347,0.684,0.832,-66.859,-71.753,-120.216
0.351,0.648,0.836,-67.150,-70.748,-119.704
0.353,0.611,0.843,-67.040,-69.490,-118.671
0.352,0.575,0.850,-66.497,-68.084,-117.187
0.347,0.539,0.859,-65.568,-66.664,-115.401
0.341,0.505,0.869,-64.318,-65.280,-113.410
0.333,0.475,0.881,-62.877,-63.944,-111.366
0.325,0.448,0.894,-61.209,-62.643,-109.300
0.316,0.425,0.908,-59.539,-61.342,-107.236
0.308,0.405,0.921,-58.001,-59.828,-105.072
0.299,0.388,0.933,-56.796,-58.178,-102.629
0.289,0.374,0.943,-56.061,-56.607,-99.357
0.273,0.361,0.948,-54.599,-53.720,-97.407
0.268,0.350,0.956,-53.759,-50.448,-94.119
0.257,0.337,0.965,-53.039,-48.754,-90.391
0.243,0.327,0.970,-52.397,-47.487,-86.512
0.234,0.318,0.974,-51.781,-46.102,-82.760
0.225,0.310,0.979,-51.116,-44.171,-78.987
0.215,0.302,0.982,-50.357,-42.094,-75.044
0.205,0.295,0.986,-49.559,-40.070,-71.026
0.194,0.290,0.989,-48.743,-37.976,-67.027
0.184,0.285,0.992,-47.910,-35.753,-63.220
0.175,0.282,0.995,-47.167,-33.997,-59.257
0.164,0.280,0.997,-46.395,-32.214,-55.638
0.154,0.280,1.000,-45.721,-30.416,-52.108
0.145,0.280,1.001,-45.121,-28.816,-48.884
0.135,0.281,1.002,-44.626,-27.230,-45.911
0.126,0.282,1.002,-44.204,-25.729,-43.164
0.118,0.282,1.001,-43.781,-24.329,-40.534
0.109,0.282,1.000,-43.288,-23.002,-38.016
0.101,0.282,0.998,-42.695,-21.749,-35.588
0.093,0.282,0.995,-41.957,-20.581,-33.230
0.086,0.282,0.993,-41.000,-19.510,-30.973
0.079,0.283,0.992,-39.914,-18.377,-28.721
0.072,0.284,0.990,-38.719,-17.330,-26.445
0.065,0.285,0.989,-37.462,-16.351,-24.212
0.059,0.288,0.988,-36.161,-15.408,-22.114
0.053,0.291,0.986,-34.888,-14.454,-20.127
0.046,0.294,0.985,-33.665,-13.532,-18.277
0.040,0.298,0.984,-32.536,-12.687,-16.572
0.034,0.301,0.983,-31.528,-11.931,-15.051
0.027,0.305,0.982,-30.585,-11.254,-13.690
0.021,0.308,0.981,-29.677,-10.633,-12.472
0.015,0.310,0.980,-28.797,-10.066,-11.396
0.010,0.313,0.979,-27.989,-9.549,-10.451
0.004,0.315,0.979,-27.244,-9.025,-9.654
-0.001,0.317,0.978,-26.533,-8.539,-8.946
-0.005,0.319,0.978,-25.845,-8.067,-8.303
-0.010,0.320,0.977,-25.180,-7.610,-7.717
-0.014,0.322,0.976,-24.532,-7.162,-7.162
-0.017,0.323,0.975,-23.882,-6.733,-6.626
-0.021,0.324,0.974,-23.229,-6.347,-6.099
-0.024,0.325,0.973,-22.597,-5.998,-5.585
-0.027,0.326,0.972,-21.972,-5.666,-5.109
-0.030,0.326,0.971,-21.309,-5.348,-4.639
-0.032,0.326,0.970,-20.609,-5.065,-4.173
-0.035,0.326,0.969,-19.880,-4.811,-3.698
-0.037,0.326,0.969,-19.171,-4.579,-3.243
-0.039,0.327,0.969,-18.547,-4.369,-2.799
-0.041,0.328,0.969,-17.986,-4.159,-2.374
-0.043,0.329,0.969,-17.511,-3.955,-1.965
-0.044,0.329,0.969,-17.075,-3.746,-1.556
-0.046,0.329,0.969,-16.653,-3.549,-1.144
-0.047,0.329,0.969,-16.237,-3.361,-0.737
-0.049,0.330,0.969,-15.823,-3.183,-0.330
-0.050,0.330,0.969,-15.406,-3.004,0.083
-0.051,0.330,0.970,-14.996,-2.827,0.497
-0.052,0.330,0.970,-14.618,-2.639,0.910
-0.053,0.330,0.970,-14.273,-2.447,1.304
-0.054,0.331,0.970,-13.966,-2.252,1.709
-0.056,0.330,0.970,-13.700,-2.069,2.094
-0.057,0.329,0.970,-13.373,-1.861,2.461
-0.057,0.328,0.970,-12.976,-1.615,2.812
-0.058,0.327,0.969,-12.547,-1.344,3.192
-0.058,0.326,0.969,-12.071,-1.044,3.626
-0.059,0.325,0.969,-11.545,-0.744,4.104
-0.060,0.325,0.969,-10.974,-0.445,4.612
-0.060,0.325,0.970,-10.398,-0.145,5.120
-0.061,0.325,0.970,-9.874,0.159,5.635
-0.061,0.326,0.971,-9.466,0.469,6.170
-0.062,0.326,0.972,-9.156,0.804,6.701
-0.062,0.327,0.973,-8.921,1.175,7.239
-0.062,0.327,0.973,-8.758,1.588,7.761
-0.062,0.328,0.974,-8.670,2.023,8.275
-0.062,0.328,0.974,-8.659,2.483,8.796
-0.062,0.328,0.973,-8.680,2.975,9.320
-0.063,0.328,0.973,-8.712,3.483,9.838
-0.063,0.327,0.973,-8.748,3.997,10.389
-0.063,0.326,0.972,-8.778,4.513,10.982
-0.063,0.324,0.972,-8.781,5.050,11.643
-0.064,0.322,0.972,-8.748,5.584,12.358
-0.064,0.320,0.971,-8.678,6.116,13.142
-0.064,0.318,0.971,-8.572,6.629,13.998
-0.064,0.317,0.972,-8.453,7.163,14.892
-0.064,0.315,0.972,-8.312,7.694,15.823
-0.064,0.314,0.972,-8.151,8.221,16.831
-0.065,0.313,0.973,-8.004,8.754,17.890
-0.065,0.313,0.973,-7.891,9.282,18.979
-0.066,0.312,0.973,-7.811,9.811,20.042
-0.067,0.312,0.974,-7.759,10.320,21.090
-0.067,0.312,0.974,-7.721,10.820,22.119
-0.068,0.312,0.975,-7.703,11.310,23.126
-0.069,0.311,0.975,-7.695,11.853,24.152
-0.069,0.311,0.976,-7.697,12.390,25.186
-0.070,0.310,0.976,-7.729,12.899,26.204
-0.071,0.309,0.977,-7.786,13.476,27.333
-0.071,0.307,0.978,-7.803,14.090,28.496

0.268,0.956,0.687,-7.393,9.836,23.481
0.271,0.959,0.684,-6.960,5.450,18.206
0.274,0.960,0.682,-6.329,0.452,12.819
0.277,0.960,0.682,-5.702,-5.408,7.454
0.280,0.961,0.680,-4.939,-10.109,1.570
0.283,0.961,0.680,-4.310,-15.269,-4.509
0.286,0.962,0.681,-3.735,-20.873,-10.886
0.289,0.963,0.681,-3.233,-26.677,-17.342
0.291,0.966,0.682,-2.969,-32.540,-23.593
0.293,0.969,0.682,-2.978,-38.355,-29.424
0.296,0.971,0.681,-3.195,-43.631,-34.762
0.298,0.973,0.678,-3.481,-48.717,-40.813
0.297,0.976,0.674,-3.886,-54.107,-47.240
0.296,0.979,0.670,-4.439,-59.678,-53.989
0.294,0.980,0.665,-5.120,-65.053,-60.976
0.291,0.980,0.661,-5.771,-70.372,-68.255
0.287,0.978,0.656,-6.192,-75.610,-75.913
0.281,0.976,0.650,-6.373,-80.969,-83.906
0.276,0.976,0.643,-6.454,-86.565,-92.154
0.269,0.978,0.633,-6.516,-92.257,-100.508
0.263,0.981,0.624,-6.702,-98.308,-109.197
0.256,0.981,0.616,-7.078,-104.512,-117.916
0.250,0.979,0.609,-7.324,-111.049,-126.827
0.243,0.977,0.602,-7.398,-118.517,-136.087
0.238,0.973,0.598,-7.410,-126.797,-145.355
0.233,0.969,0.595,-7.428,-135.251,-154.571
0.229,0.966,0.593,-7.483,-143.562,-163.680
0.227,0.963,0.593,-7.642,-151.887,-172.565
0.227,0.959,0.595,-8.049,-160.097,-181.244
0.229,0.954,0.598,-8.498,-167.547,-189.644
0.233,0.949,0.603,-8.977,-173.578,-197.400
0.240,0.944,0.609,-9.616,-178.374,-204.481
0.248,0.939,0.617,-10.640,-181.822,-210.639
0.258,0.933,0.627,-12.219,-184.262,-215.676
0.270,0.923,0.637,-14.485,-185.712,-219.509
0.285,0.911,0.648,-17.151,-186.004,-222.401
0.300,0.895,0.658,-20.028,-184.693,-223.835
0.316,0.876,0.669,-22.898,-182.500,-223.965
0.330,0.854,0.679,-25.549,-179.930,-222.787
0.343,0.830,0.689,-27.740,-176.846,-220.104
0.354,0.803,0.699,-29.522,-173.456,-216.595
0.362,0.776,0.710,-31.043,-169.938,-212.530
0.368,0.750,0.723,-32.453,-166.229,-208.112
0.373,0.725,0.735,-33.994,-162.379,-203.456
0.376,0.699,0.749,-35.685,-158.530,-198.612
0.378,0.672,0.762,-37.282,-154.719,-193.813
0.377,0.645,0.775,-38.631,-150.975,-189.146
0.376,0.617,0.788,-39.606,-147.327,-184.707
0.373,0.589,0.799,-39.992,-143.795,-180.527
0.369,0.562,0.811,-39.980,-140.381,-176.607
0.364,0.537,0.824,-39.695,-137.093,-172.617
0.359,0.514,0.837,-39.269,-133.938,-168.209
0.352,0.494,0.849,-38.748,-130.275,-162.074
0.343,0.475,0.857,-38.135,-126.857,-157.404
0.337,0.461,0.868,-37.658,-122.330,-152.057
0.328,0.448,0.877,-37.305,-117.862,-146.300
0.319,0.436,0.886,-37.238,-114.307,-139.359
0.308,0.424,0.893,-37.102,-110.671,-132.853
0.299,0.415,0.899,-36.974,-106.433,-126.437
0.290,0.406,0.906,-36.880,-102.018,-119.985
0.280,0.398,0.912,-36.777,-97.538,-113.688
0.271,0.390,0.918,-36.717,-93.090,-107.454
0.262,0.384,0.925,-36.822,-88.722,-101.212
0.252,0.379,0.931,-37.114,-84.419,-95.079
0.243,0.374,0.937,-37.608,-80.126,-89.072
0.234,0.369,0.942,-38.242,-75.859,-83.254
0.224,0.363,0.946,-38.933,-71.701,-77.684
0.215,0.357,0.949,-39.531,-67.675,-72.328
0.205,0.349,0.951,-39.847,-63.876,-67.166
0.197,0.341,0.953,-39.877,-60.162,-61.913
0.188,0.332,0.956,-39.609,-56.762,-56.473
0.180,0.324,0.959,-39.048,-53.590,-50.984
0.172,0.317,0.963,-38.313,-50.566,-45.569
0.165,0.312,0.968,-37.451,-47.529,-40.221
0.158,0.308,0.974,-36.621,-44.355,-34.873
0.152,0.305,0.979,-35.931,-41.216,-29.547
0.145,0.303,0.984,-35.331,-38.148,-24.297
0.138,0.300,0.990,-34.855,-34.924,-19.164
0.132,0.297,0.994,-34.447,-32.001,-14.111
0.126,0.294,0.999,-34.031,-29.113,-9.353
0.121,0.291,1.003,-33.615,-26.158,-4.600
0.116,0.287,1.008,-33.157,-23.156,0.074
0.111,0.284,1.011,-32.669,-20.056,4.657
0.107,0.281,1.015,-32.171,-16.954,9.514
0.102,0.278,1.019,-31.574,-13.824,14.252
0.098,0.276,1.022,-30.988,-10.671,18.879
0.094,0.275,1.026,-30.457,-7.584,23.342
0.090,0.275,1.029,-30.025,-4.493,27.671
0.086,0.275,1.031,-29.681,-1.426,31.953
0.082,0.274,1.033,-29.420,1.553,36.159
0.078,0.273,1.034,-29.181,4.461,40.193
0.075,0.271,1.035,-28.943,7.254,44.100
0.071,0.269,1.036,-28.667,9.892,47.918
0.069,0.267,1.037,-28.365,12.454,51.698
0.066,0.266,1.038,-28.043,15.043,55.360
0.064,0.266,1.039,-27.749,17.671,58.984
0.062,0.267,1.039,-27.526,20.345,62.571
0.060,0.268,1.040,-27.401,22.983,65.984
0.058,0.270,1.041,-27.359,25.609,69.104
0.057,0.271,1.041,-27.397,28.200,72.030
0.055,0.273,1.040,-27.502,30.720,74.746
0.053,0.274,1.038,-27.670,33.207,77.291
0.052,0.273,1.036,-27.864,35.627,79.783
0.049,0.272,1.034,-28.021,37.847,82.296
0.047,0.270,1.032,-28.063,39.880,84.819
0.045,0.267,1.030,-27.975,41.748,87.393
0.043,0.265,1.027,-27.725,43.491,89.967
0.042,0.264,1.025,-27.395,45.112,92.544
0.040,0.263,1.023,-26.998,46.614,95.142
0.038,0.263,1.021,-26.573,48.004,97.701
0.036,0.265,1.019,-26.163,49.313,100.087
0.035,0.267,1.017,-25.809,50.541,102.283
0.033,0.270,1.015,-25.523,51.726,104.438
0.032,0.273,1.012,-25.265,52.907,106.527
0.030,0.275,1.009,-25.071,54.001,108.407
0.028,0.277,1.006,-24.864,55.030,110.152
0.026,0.278,1.002,-24.601,55.949,111.835
0.023,0.280,0.999,-24.275,56.758,113.440
0.021,0.282,0.996,-23.867,57.475,114.890

0.320,1.274,0.308,-22.666,46.972,104.666
0.322,1.271,0.311,-21.634,36.409,94.449
0.323,1.268,0.317,-20.977,26.512,84.021
0.324,1.266,0.324,-20.666,17.144,73.127
0.323,1.264,0.329,-20.633,7.926,61.640
0.323,1.260,0.334,-20.854,-1.395,50.064
0.321,1.255,0.339,-21.156,-10.164,37.863
0.320,1.248,0.342,-21.526,-18.511,25.750
0.318,1.240,0.346,-21.786,-26.579,13.708
0.317,1.231,0.349,-21.929,-34.461,2.123
0.316,1.221,0.352,-21.864,-41.829,-9.150
0.314,1.211,0.356,-21.763,-48.904,-19.796
0.313,1.201,0.362,-21.672,-55.782,-30.061
0.310,1.189,0.368,-21.570,-62.196,-39.997
0.307,1.179,0.376,-21.537,-68.492,-49.470
0.302,1.169,0.386,-21.649,-74.803,-58.443
0.298,1.156,0.396,-21.974,-81.065,-66.784
0.294,1.142,0.407,-22.458,-87.235,-74.616
0.290,1.128,0.420,-23.225,-93.228,-82.271
0.283,1.115,0.433,-24.201,-99.531,-89.938
0.276,1.104,0.445,-25.801,-105.182,-97.539
0.270,1.092,0.458,-28.155,-110.685,-104.837
0.265,1.079,0.469,-31.121,-115.581,-111.779
0.261,1.064,0.478,-34.280,-120.152,-118.120
0.258,1.046,0.488,-37.395,-124.295,-123.876
0.257,1.028,0.499,-40.835,-128.431,-128.722
0.257,1.008,0.511,-44.649,-131.847,-132.812
0.263,0.984,0.524,-48.447,-133.783,-136.092
0.268,0.954,0.536,-51.190,-134.496,-138.688
0.274,0.920,0.548,-52.707,-134.330,-140.490
0.278,0.884,0.560,-53.007,-133.448,-141.061
0.282,0.847,0.571,-52.630,-132.032,-140.703
0.285,0.811,0.584,-51.867,-130.203,-139.631
0.286,0.777,0.597,-50.886,-128.101,-137.992
0.288,0.746,0.613,-49.725,-125.814,-135.787
0.289,0.718,0.629,-48.596,-123.383,-133.356
0.290,0.692,0.646,-47.700,-120.818,-130.788
0.290,0.669,0.665,-47.010,-118.171,-128.172
0.289,0.646,0.683,-46.561,-115.557,-125.589
0.286,0.622,0.701,-46.339,-113.019,-122.858
0.283,0.598,0.718,-46.113,-110.408,-119.607
0.278,0.574,0.734,-45.762,-107.473,-115.893
0.273,0.550,0.751,-45.234,-104.310,-111.849
0.267,0.533,0.766,-44.861,-100.500,-106.613
0.259,0.513,0.779,-43.934,-96.899,-102.525
0.254,0.497,0.796,-42.975,-92.522,-97.724
0.246,0.482,0.809,-42.053,-88.038,-92.471
0.238,0.469,0.823,-41.404,-84.876,-86.435
0.229,0.458,0.834,-40.747,-81.639,-80.812
0.222,0.448,0.844,-40.104,-77.756,-74.962
0.213,0.439,0.853,-39.329,-73.914,-69.216
0.205,0.432,0.863,-38.528,-70.046,-63.655
0.197,0.426,0.872,-37.835,-66.108,-58.152
0.189,0.421,0.881,-37.284,-62.274,-52.623
0.182,0.417,0.889,-36.835,-58.499,-47.125
0.175,0.414,0.897,-36.462,-54.608,-41.697
0.169,0.410,0.903,-36.178,-50.660,-36.533
0.162,0.406,0.909,-35.952,-46.764,-31.464
0.156,0.402,0.914,-35.701,-42.701,-26.510
0.150,0.398,0.919,-35.415,-38.650,-21.501
0.144,0.393,0.922,-35.045,-34.613,-16.302
0.139,0.388,0.926,-34.573,-30.637,-11.100
0.133,0.383,0.929,-33.918,-26.686,-6.177
0.128,0.379,0.933,-33.214,-22.807,-1.139
0.123,0.375,0.938,-32.366,-19.098,3.691
0.117,0.373,0.942,-31.571,-15.482,8.249
0.112,0.371,0.946,-30.865,-12.017,12.590
0.107,0.370,0.950,-30.278,-8.578,16.770
0.102,0.368,0.954,-29.822,-5.269,20.763
0.097,0.367,0.958,-29.474,-2.011,24.476
0.093,0.365,0.961,-29.163,1.119,28.044
0.088,0.362,0.963,-28.858,4.090,31.630
0.083,0.359,0.965,-28.537,7.077,35.302
0.079,0.355,0.967,-28.159,9.999,39.067
0.075,0.352,0.968,-27.650,12.695,42.802
0.072,0.349,0.970,-27.042,15.371,46.546
0.068,0.347,0.971,-26.413,18.063,50.303
0.065,0.345,0.972,-25.790,20.668,53.907
0.061,0.344,0.974,-25.249,23.016,57.247
0.058,0.343,0.975,-24.820,25.205,60.381
0.054,0.343,0.976,-24.487,27.323,63.409
0.051,0.343,0.977,-24.235,29.372,66.481
0.048,0.342,0.978,-24.026,31.382,69.442
0.045,0.340,0.977,-23.736,33.350,72.217
0.043,0.339,0.977,-23.356,35.243,74.851
0.040,0.338,0.976,-22.932,37.063,77.438
0.038,0.338,0.976,-22.515,38.760,79.928
0.035,0.337,0.974,-22.085,40.382,82.369
0.033,0.337,0.973,-21.628,41.966,84.774
0.032,0.338,0.971,-21.153,43.562,87.097
0.030,0.338,0.970,-20.694,45.116,89.288
0.029,0.340,0.968,-20.249,46.543,91.350
0.027,0.341,0.967,-19.835,47.846,93.265
0.025,0.343,0.965,-19.456,49.065,95.091
0.023,0.345,0.963,-19.094,50.176,96.819
0.021,0.347,0.962,-18.773,51.186,98.496
0.019,0.348,0.960,-18.427,52.145,100.094
0.017,0.349,0.958,-18.037,52.988,101.598
0.015,0.351,0.957,-17.624,53.788,103.019
0.013,0.353,0.955,-17.233,54.483,104.352
0.011,0.356,0.954,-16.853,55.131,105.511
0.009,0.360,0.953,-16.567,55.720,106.520
0.007,0.363,0.952,-16.421,56.277,107.365
0.005,0.368,0.951,-16.384,56.820,108.088
0.004,0.371,0.950,-16.424,57.354,108.695
0.002,0.375,0.948,-16.468,57.836,109.227
0.000,0.378,0.947,-16.485,58.239,109.728
-0.001,0.382,0.945,-16.447,58.600,110.166
-0.002,0.386,0.944,-16.418,58.954,110.609
-0.004,0.389,0.943,-16.428,59.248,110.937
-0.005,0.392,0.940,-16.440,59.559,111.126
-0.005,0.394,0.938,-16.393,59.920,111.279
-0.005,0.397,0.936,-16.295,60.287,111.505
-0.005,0.400,0.933,-16.112,60.666,111.647
-0.006,0.403,0.932,-15.869,61.094,111.689
-0.007,0.406,0.930,-15.528,61.476,111.592
-0.008,0.410,0.928,-15.078,61.900,111.386
-0.009,0.414,0.926,-14.544,62.329,111.123
-0.010,0.418,0.925,-13.942,62.696,110.778

0.322,1.157,0.427,-14.834,26.871,65.030
0.326,1.154,0.434,-15.710,-4.343,23.894
0.333,1.146,0.439,-16.079,-32.160,-13.320
0.341,1.137,0.446,-16.432,-56.740,-46.713
0.350,1.126,0.454,-16.676,-77.736,-76.154
0.361,1.115,0.463,-16.862,-96.287,-102.105
0.370,1.105,0.471,-17.255,-113.158,-124.952
0.380,1.097,0.480,-17.971,-128.301,-144.717
0.391,1.089,0.493,-19.403,-141.524,-161.910
0.402,1.080,0.508,-22.106,-152.140,-176.822
0.416,1.069,0.523,-26.934,-160.503,-189.793
0.430,1.054,0.539,-33.143,-166.176,-200.602
0.443,1.036,0.558,-40.205,-169.361,-208.990
0.455,1.013,0.578,-47.625,-170.744,-214.873
0.467,0.984,0.595,-54.203,-170.344,-218.068
0.479,0.946,0.610,-59.036,-168.944,-219.420
0.488,0.903,0.625,-61.752,-166.666,-218.787
0.493,0.857,0.640,-62.441,-164.038,-216.537
0.497,0.808,0.657,-61.818,-161.176,-212.782
0.497,0.760,0.676,-60.255,-158.375,-208.267
0.496,0.717,0.696,-57.875,-155.472,-203.306
0.494,0.678,0.717,-55.203,-152.336,-198.180
0.491,0.644,0.738,-52.744,-149.111,-193.116
0.486,0.613,0.757,-50.955,-145.776,-188.267
0.482,0.586,0.775,-49.819,-142.371,-183.716
0.476,0.561,0.791,-49.137,-138.987,-179.489
0.469,0.536,0.807,-48.851,-135.725,-175.394
0.461,0.511,0.822,-48.904,-132.633,-170.705
0.453,0.485,0.836,-49.277,-129.246,-165.599
0.444,0.459,0.849,-49.721,-125.364,-160.100
0.435,0.433,0.860,-50.180,-120.834,-154.053
0.424,0.408,0.871,-50.520,-115.763,-145.836
0.412,0.384,0.883,-50.567,-111.049,-139.058
0.401,0.362,0.897,-50.568,-106.878,-131.479
0.386,0.342,0.904,-50.187,-100.118,-124.824
0.375,0.324,0.915,-49.666,-93.235,-117.315
0.362,0.307,0.923,-49.087,-86.848,-108.398
0.349,0.292,0.932,-48.478,-82.442,-100.104
0.335,0.281,0.939,-47.886,-77.065,-92.578
0.325,0.271,0.946,-47.304,-71.055,-84.346
0.313,0.263,0.952,-46.696,-65.262,-75.514
0.301,0.257,0.958,-46.067,-59.666,-66.959
0.289,0.254,0.964,-45.477,-54.316,-58.954
0.276,0.252,0.968,-44.932,-49.136,-51.527
0.263,0.251,0.972,-44.434,-44.381,-44.423
0.249,0.252,0.974,-43.943,-40.172,-37.761
0.235,0.254,0.975,-43.481,-36.455,-31.755
0.221,0.257,0.976,-43.066,-33.188,-26.551
0.207,0.262,0.975,-42.663,-30.278,-22.114
0.192,0.266,0.974,-42.264,-27.691,-18.331
0.178,0.270,0.973,-41.764,-25.459,-14.971
0.163,0.274,0.971,-41.166,-23.573,-12.003
0.149,0.276,0.968,-40.389,-22.066,-9.405
0.136,0.279,0.966,-39.236,-20.798,-7.198
0.123,0.281,0.964,-37.819,-19.716,-5.269
0.112,0.285,0.964,-36.252,-18.824,-3.562
0.101,0.289,0.964,-34.674,-18.028,-2.103
0.091,0.294,0.964,-33.181,-17.263,-0.895
0.081,0.299,0.965,-31.882,-16.555,0.162
0.073,0.304,0.965,-30.784,-15.933,1.083
0.065,0.309,0.966,-29.925,-15.384,1.857
0.058,0.312,0.966,-29.261,-14.882,2.493
0.051,0.314,0.966,-28.699,-14.424,3.045
0.046,0.314,0.966,-28.100,-14.024,3.626
0.040,0.312,0.966,-27.420,-13.633,4.242
0.036,0.310,0.967,-26.652,-13.230,4.877
0.032,0.308,0.968,-25.853,-12.789,5.545
0.029,0.305,0.969,-25.130,-12.287,6.262
0.026,0.302,0.970,-24.394,-11.749,7.061
0.023,0.299,0.972,-23.706,-11.062,8.078
0.020,0.295,0.975,-23.027,-10.411,9.272
0.018,0.290,0.977,-22.371,-9.768,10.549
0.016,0.286,0.979,-21.745,-9.045,11.982
0.015,0.281,0.982,-21.140,-8.187,13.610
0.014,0.276,0.985,-20.582,-7.206,15.465
0.013,0.270,0.987,-20.063,-6.080,17.501
0.012,0.265,0.989,-19.534,-4.822,19.714
0.011,0.259,0.990,-18.936,-3.382,22.198
0.011,0.254,0.992,-18.338,-2.140,24.709
0.010,0.250,0.994,-17.761,-0.842,27.250
0.009,0.245,0.995,-17.185,0.475,29.832
0.007,0.242,0.996,-16.669,1.773,32.421
0.006,0.239,0.998,-16.225,3.085,35.059
0.005,0.236,0.999,-15.833,4.421,37.783
0.003,0.234,1.000,-15.490,5.770,40.515
0.002,0.232,1.000,-15.175,7.105,43.247
0.000,0.230,1.001,-14.895,8.421,45.939
-0.002,0.229,1.002,-14.640,9.731,48.598
-0.003,0.228,1.003,-14.408,11.050,51.179
-0.005,0.228,1.004,-14.210,12.382,53.705
-0.006,0.228,1.004,-14.072,13.722,56.191
-0.008,0.228,1.004,-13.987,15.048,58.605
-0.010,0.227,1.004,-13.909,16.360,60.958
-0.011,0.227,1.003,-13.812,17.625,63.248
-0.012,0.227,1.003,-13.694,18.828,65.486
-0.013,0.226,1.002,-13.512,19.996,67.727
-0.014,0.226,1.001,-13.240,21.146,69.959
-0.014,0.226,1.001,-12.871,22.266,72.194
-0.014,0.226,1.000,-12.459,23.362,74.409
-0.015,0.227,1.000,-12.029,24.466,76.570
-0.015,0.228,1.000,-11.611,25.591,78.704
-0.015,0.230,1.001,-11.213,26.708,80.825
-0.015,0.232,1.001,-10.873,27.852,82.895
-0.015,0.235,1.002,-10.616,28.981,84.851
-0.016,0.239,1.002,-10.478,30.095,86.664
-0.016,0.242,1.002,-10.406,31.172,88.343
-0.017,0.245,1.001,-10.375,32.229,89.969
-0.018,0.247,1.000,-10.350,33.219,91.513
-0.019,0.249,0.999,-10.301,34.178,92.992
-0.019,0.251,0.997,-10.187,35.121,94.453
-0.019,0.253,0.995,-9.948,36.043,95.904
-0.020,0.255,0.993,-9.616,36.878,97.309
-0.020,0.257,0.992,-9.207,37.690,98.666
-0.021,0.259,0.990,-8.753,38.463,99.987
-0.021,0.262,0.989,-8.291,39.209,101.262
-0.022,0.265,0.987,-7.834,39.881,102.401
-0.023,0.268,0.986,-7.396,40.567,103.465
-0.024,0.271,0.984,-6.980,41.181,104.522
-0.025,0.273,0.982,-6.553,41.721,105.519

0.392,-0.299,1.217,-7.565,39.254,99.631
0.383,-0.305,1.221,-8.281,37.895,94.292
0.375,-0.308,1.224,-8.997,36.589,90.354
0.364,-0.312,1.222,-9.236,35.480,86.757
0.354,-0.312,1.221,-9.394,34.681,83.970
0.344,-0.311,1.219,-9.463,33.842,81.420
0.333,-0.308,1.217,-9.528,32.985,78.929
0.321,-0.303,1.214,-9.564,32.353,76.509
0.310,-0.298,1.209,-9.498,31.596,74.153
0.300,-0.290,1.209,-9.667,31.579,71.914
0.290,-0.284,1.207,-9.995,31.698,69.938
0.278,-0.278,1.205,-10.308,31.344,68.085
0.264,-0.271,1.202,-10.596,30.648,66.212
0.251,-0.265,1.198,-10.908,29.790,64.305
0.240,-0.260,1.194,-11.136,28.898,62.477
0.229,-0.256,1.191,-11.223,27.999,60.770
0.218,-0.252,1.189,-11.130,27.236,59.229
0.208,-0.248,1.186,-10.858,26.609,57.838
0.198,-0.243,1.185,-10.506,26.116,56.561
0.189,-0.236,1.184,-10.158,25.685,55.358
0.180,-0.229,1.183,-9.969,25.272,54.253
0.170,-0.221,1.182,-9.939,24.836,53.252
0.161,-0.213,1.179,-10.010,24.360,52.364
0.152,-0.206,1.177,-10.112,23.843,51.612
0.144,-0.200,1.174,-10.201,23.326,50.984
0.136,-0.194,1.171,-10.256,22.840,50.490
0.129,-0.188,1.168,-10.264,22.432,50.171
0.122,-0.183,1.164,-10.208,22.112,50.081
0.116,-0.178,1.161,-10.078,21.856,50.169
0.110,-0.173,1.158,-9.762,21.693,50.349
0.104,-0.168,1.154,-9.276,21.625,50.663
0.099,-0.162,1.151,-8.704,21.647,51.064
0.093,-0.155,1.148,-8.093,21.746,51.452
0.087,-0.147,1.144,-7.493,21.923,51.828
0.082,-0.138,1.141,-6.958,22.183,52.271
0.076,-0.129,1.138,-6.475,22.487,52.717
0.070,-0.119,1.134,-6.047,22.782,53.117
0.064,-0.108,1.131,-5.676,23.063,53.458
0.059,-0.098,1.127,-5.387,23.316,53.748
0.053,-0.088,1.124,-5.169,23.532,54.016
0.048,-0.078,1.120,-5.015,23.709,54.221
0.042,-0.069,1.117,-4.871,23.869,54.341
0.038,-0.060,1.113,-4.690,24.013,54.398
0.033,-0.050,1.109,-4.502,24.134,54.417
0.028,-0.041,1.105,-4.310,24.217,54.407
0.023,-0.032,1.101,-4.109,24.281,54.367
0.019,-0.022,1.096,-3.884,24.297,54.298
0.014,-0.013,1.091,-3.628,24.274,54.203
0.010,-0.004,1.086,-3.367,24.195,54.069
0.006,0.005,1.081,-3.104,24.071,53.843
0.001,0.014,1.076,-2.798,23.919,53.550
-0.002,0.023,1.071,-2.468,23.735,53.200
-0.006,0.032,1.067,-2.148,23.510,52.791
-0.010,0.041,1.062,-1.871,23.268,52.315
-0.013,0.050,1.058,-1.644,23.006,51.778
-0.017,0.059,1.054,-1.515,22.701,51.173
-0.020,0.067,1.050,-1.480,22.361,50.545
-0.023,0.075,1.047,-1.519,21.988,49.903
-0.026,0.082,1.044,-1.616,21.562,49.245
-0.029,0.088,1.041,-1.706,21.104,48.589
-0.031,0.092,1.038,-1.726,20.631,47.947
-0.033,0.096,1.035,-1.652,20.170,47.353
-0.035,0.100,1.033,-1.532,19.718,46.802
-0.036,0.104,1.031,-1.409,19.293,46.303
-0.038,0.108,1.029,-1.282,18.896,45.860
-0.039,0.112,1.027,-1.180,18.520,45.485
-0.041,0.115,1.025,-1.151,18.155,45.157
-0.042,0.119,1.024,-1.177,17.802,44.875
-0.043,0.122,1.022,-1.235,17.462,44.643
-0.045,0.125,1.020,-1.289,17.132,44.474
-0.046,0.128,1.019,-1.345,16.804,44.356
-0.047,0.130,1.018,-1.375,16.490,44.257
-0.049,0.132,1.017,-1.374,16.198,44.173
-0.049,0.133,1.016,-1.337,15.942,44.140
-0.050,0.135,1.016,-1.260,15.726,44.184
-0.051,0.136,1.016,-1.163,15.541,44.287
-0.052,0.137,1.017,-1.040,15.401,44.450
-0.052,0.138,1.017,-0.910,15.308,44.651
-0.053,0.139,1.018,-0.790,15.265,44.910
-0.054,0.141,1.020,-0.685,15.277,45.232
-0.054,0.143,1.021,-0.620,15.316,45.600
-0.055,0.144,1.022,-0.620,15.385,45.984
-0.056,0.147,1.023,-0.670,15.483,46.398
-0.057,0.149,1.023,-0.767,15.600,46.834
-0.058,0.151,1.023,-0.897,15.728,47.287
-0.059,0.152,1.023,-1.036,15.853,47.764
-0.061,0.154,1.023,-1.156,15.970,48.288
-0.062,0.155,1.023,-1.254,16.092,48.854
-0.063,0.155,1.023,-1.303,16.271,49.454
-0.063,0.156,1.022,-1.314,16.484,50.080
-0.064,0.157,1.022,-1.296,16.713,50.755
-0.065,0.158,1.023,-1.278,16.945,51.508
-0.065,0.159,1.023,-1.275,17.178,52.280
-0.066,0.160,1.023,-1.308,17.443,53.056
-0.066,0.161,1.023,-1.363,17.733,53.853
-0.067,0.163,1.023,-1.458,18.045,54.687
-0.067,0.164,1.022,-1.578,18.365,55.595
-0.068,0.166,1.022,-1.688,18.679,56.547
-0.068,0.166,1.021,-1.776,18.956,57.510
-0.069,0.167,1.020,-1.810,19.248,58.494
-0.069,0.168,1.019,-1.777,19.579,59.519
-0.069,0.168,1.018,-1.695,19.930,60.556
-0.070,0.169,1.016,-1.567,20.302,61.627
-0.070,0.171,1.015,-1.430,20.661,62.691
-0.070,0.172,1.015,-1.288,21.005,63.743
-0.071,0.174,1.014,-1.180,21.362,64.771
-0.071,0.175,1.014,-1.077,21.731,65.764
-0.071,0.177,1.014,-1.008,22.138,66.762
-0.072,0.179,1.013,-0.954,22.549,67.775
-0.072,0.181,1.013,-0.936,22.930,68.801
-0.073,0.182,1.012,-0.960,23.310,69.828
-0.073,0.184,1.012,-1.004,23.729,70.875
-0.073,0.185,1.011,-1.017,24.142,71.914
-0.073,0.187,1.011,-1.033,24.566,72.930
-0.073,0.188,1.011,-1.046,24.980,73.969
-0.073,0.189,1.010,-1.017,25.469,75.028
-0.073,0.189,1.009,-0.863,26.006,76.112
-0.073,0.190,1.008,-0.617,26.552,77.257
-0.074,0.191,1.007,-0.338,27.114,78.411

0.370,1.282,0.276,-0.009,5.658,29.347
0.379,1.281,0.289,0.798,-15.610,-16.541
0.382,1.278,0.300,1.070,-40.104,-61.099
0.386,1.275,0.312,0.893,-66.438,-104.581
0.393,1.268,0.325,0.102,-93.366,-144.547
0.402,1.257,0.339,-1.230,-119.333,-180.752
0.411,1.241,0.357,-3.124,-142.836,-212.908
0.420,1.220,0.377,-5.829,-164.698,-241.733
0.427,1.196,0.399,-10.920,-183.859,-267.766
0.436,1.168,0.419,-15.830,-199.044,-290.171
0.448,1.138,0.438,-21.080,-210.570,-309.471
0.460,1.109,0.459,-27.390,-219.426,-325.949
0.470,1.083,0.481,-35.679,-226.151,-339.043
0.482,1.067,0.504,-46.842,-230.192,-347.482
0.499,1.051,0.525,-59.447,-230.898,-352.900
0.519,1.035,0.544,-71.787,-229.212,-355.043
0.543,1.012,0.560,-81.971,-226.416,-354.747
0.567,0.977,0.577,-87.840,-222.560,-352.667
0.591,0.936,0.589,-92.345,-217.527,-349.337
0.611,0.892,0.596,-94.622,-211.909,-344.716
0.625,0.845,0.603,-95.401,-206.068,-338.609
0.635,0.797,0.611,-94.935,-200.345,-330.897
0.643,0.747,0.621,-93.363,-194.796,-321.534
0.648,0.697,0.636,-91.463,-189.431,-311.880
0.652,0.648,0.656,-89.288,-184.296,-302.101
0.652,0.601,0.679,-86.562,-179.467,-292.264
0.648,0.558,0.704,-83.839,-174.890,-282.533
0.640,0.521,0.727,-81.758,-170.501,-273.278
0.631,0.488,0.746,-80.094,-166.255,-264.582
0.620,0.457,0.764,-78.542,-162.090,-256.443
0.610,0.427,0.781,-77.103,-158.029,-248.746
0.600,0.399,0.802,-76.024,-154.119,-241.807
0.587,0.372,0.811,-74.646,-150.284,-235.132
0.576,0.349,0.822,-73.435,-146.684,-228.889
0.566,0.326,0.830,-72.394,-143.097,-223.059
0.552,0.307,0.842,-71.306,-137.561,-217.419
0.541,0.289,0.851,-70.499,-131.066,-211.164
0.525,0.271,0.857,-69.562,-126.901,-205.075
0.506,0.255,0.862,-68.520,-123.993,-200.244
0.489,0.241,0.868,-67.974,-121.148,-195.381
0.475,0.227,0.873,-66.980,-118.292,-190.816
0.461,0.211,0.877,-65.786,-115.610,-186.015
0.446,0.195,0.883,-64.198,-112.990,-181.242
0.433,0.183,0.889,-62.308,-110.348,-176.476
0.420,0.176,0.896,-60.542,-107.433,-171.669
0.407,0.170,0.902,-59.083,-104.324,-166.843
0.394,0.166,0.906,-57.895,-101.101,-162.164
0.380,0.163,0.910,-56.872,-97.955,-157.648
0.367,0.160,0.913,-55.945,-95.129,-153.359
0.354,0.158,0.916,-55.104,-92.590,-149.167
0.342,0.155,0.919,-54.290,-90.226,-145.086
0.331,0.151,0.923,-53.477,-87.946,-141.057
0.320,0.147,0.926,-52.594,-85.859,-137.111
0.310,0.141,0.930,-51.524,-83.867,-133.187
0.300,0.135,0.934,-50.241,-82.016,-129.258
0.292,0.129,0.939,-48.819,-80.203,-125.315
0.283,0.125,0.945,-47.414,-78.430,-121.308
0.274,0.121,0.950,-46.144,-76.611,-117.206
0.266,0.119,0.954,-45.099,-74.743,-113.149
0.258,0.117,0.958,-44.173,-72.844,-109.168
0.250,0.116,0.961,-43.332,-70.981,-105.276
0.242,0.114,0.965,-42.573,-69.133,-101.278
0.235,0.112,0.968,-41.750,-67.320,-97.331
0.227,0.111,0.971,-40.930,-65.545,-93.517
0.220,0.109,0.975,-40.126,-63.699,-89.823
0.213,0.106,0.979,-39.355,-61.805,-86.136
0.207,0.103,0.983,-38.543,-59.947,-82.488
0.200,0.101,0.988,-37.752,-58.082,-78.873
0.194,0.097,0.992,-36.943,-56.161,-75.345
0.188,0.094,0.995,-36.070,-54.218,-71.868
0.182,0.090,0.999,-35.055,-52.326,-68.355
0.176,0.086,1.003,-33.967,-50.480,-64.880
0.171,0.084,1.006,-32.925,-48.617,-61.418
0.166,0.082,1.009,-32.010,-46.779,-58.054
0.161,0.081,1.011,-31.284,-44.955,-54.808
0.156,0.080,1.013,-30.694,-43.188,-51.640
0.152,0.079,1.014,-30.173,-41.485,-48.556
0.147,0.077,1.016,-29.665,-39.834,-45.581
0.142,0.076,1.016,-29.144,-38.221,-42.706
0.137,0.074,1.018,-28.585,-36.674,-39.932
0.133,0.073,1.019,-27.969,-35.174,-37.238
0.128,0.070,1.019,-27.229,-33.707,-34.614
0.124,0.068,1.020,-26.344,-32.275,-32.040
0.120,0.066,1.021,-25.345,-30.854,-29.492
0.117,0.064,1.022,-24.293,-29.452,-26.989
0.113,0.063,1.023,-23.269,-28.048,-24.519
0.110,0.062,1.023,-22.315,-26.650,-22.080
0.107,0.062,1.024,-21.428,-25.286,-19.681
0.103,0.062,1.024,-20.651,-23.946,-17.313
0.100,0.063,1.025,-19.995,-22.645,-15.012
0.097,0.064,1.025,-19.455,-21.373,-12.821
0.093,0.065,1.024,-18.981,-20.141,-10.730
0.090,0.066,1.023,-18.523,-18.954,-8.696
0.086,0.066,1.022,-18.028,-17.821,-6.725
0.083,0.066,1.020,-17.500,-16.757,-4.845
0.080,0.066,1.020,-16.911,-15.719,-3.037
0.078,0.066,1.019,-16.266,-14.687,-1.298
0.075,0.066,1.018,-15.595,-13.684,0.397
0.072,0.066,1.017,-14.920,-12.734,2.031
0.070,0.067,1.016,-14.307,-11.833,3.600
0.067,0.067,1.015,-13.733,-10.954,5.150
0.065,0.068,1.014,-13.189,-10.114,6.708
0.063,0.068,1.013,-12.648,-9.331,8.297
0.060,0.068,1.011,-12.076,-8.630,9.892
0.057,0.069,1.010,-11.495,-7.996,11.493
0.055,0.069,1.009,-10.929,-7.402,13.096
0.053,0.069,1.009,-10.390,-6.819,14.669
0.052,0.069,1.008,-9.865,-6.260,16.206
0.050,0.068,1.008,-9.345,-5.715,17.726
0.048,0.068,1.007,-8.842,-5.166,19.224
0.047,0.067,1.007,-8.344,-4.604,20.687
0.045,0.066,1.007,-7.873,-4.041,22.110
0.043,0.065,1.008,-7.448,-3.487,23.501
0.041,0.064,1.009,-7.059,-2.937,24.921
0.040,0.063,1.010,-6.740,-2.388,26.343
0.038,0.062,1.011,-6.461,-1.829,27.789
0.037,0.061,1.012,-6.212,-1.288,29.268
0.035,0.059,1.014,-5.998,-0.750,30.776
0.034,0.058,1.015,-5.791,-0.218,32.291

0.225,1.071,0.607,-6.852,-5.457,13.934
0.225,1.075,0.601,-8.131,-10.901,-6.048
0.226,1.078,0.596,-9.312,-16.499,-26.759
0.227,1.081,0.592,-10.218,-22.162,-48.067
0.228,1.083,0.590,-10.886,-27.860,-69.633
0.229,1.085,0.590,-11.343,-33.944,-90.417
0.230,1.086,0.588,-11.463,-39.614,-110.719
0.232,1.087,0.590,-11.652,-45.555,-130.903
0.233,1.089,0.592,-11.927,-52.539,-150.640
0.235,1.089,0.592,-12.340,-59.853,-169.610
0.238,1.088,0.592,-12.885,-67.465,-188.705
0.240,1.085,0.596,-13.983,-75.131,-207.303
0.242,1.080,0.600,-15.820,-83.822,-225.563
0.243,1.072,0.607,-18.629,-94.202,-243.393
0.244,1.061,0.616,-22.584,-105.243,-260.932
0.245,1.050,0.628,-27.881,-115.995,-278.535
0.247,1.040,0.643,-35.942,-125.986,-295.416
0.249,1.028,0.656,-45.323,-134.740,-311.565
0.252,1.014,0.665,-54.634,-141.913,-326.863
0.257,1.000,0.673,-63.596,-147.933,-341.294
0.262,0.985,0.681,-73.054,-153.196,-354.368
0.271,0.970,0.688,-82.826,-157.859,-365.674
0.286,0.954,0.692,-92.972,-160.819,-373.746
0.304,0.937,0.696,-103.619,-162.718,-377.611
0.323,0.923,0.699,-114.482,-163.833,-376.146
0.345,0.908,0.702,-125.627,-163.778,-372.454
0.370,0.891,0.703,-135.983,-162.588,-367.859
0.399,0.869,0.704,-144.807,-160.385,-362.767
0.430,0.840,0.706,-151.550,-157.582,-355.473
0.457,0.802,0.707,-154.644,-154.303,-348.676
0.482,0.757,0.708,-154.634,-150.716,-341.222
0.502,0.707,0.705,-152.107,-147.094,-333.295
0.516,0.655,0.704,-148.555,-143.615,-324.701
0.526,0.605,0.706,-145.177,-140.272,-314.821
0.531,0.557,0.712,-138.924,-137.037,-304.780
0.535,0.514,0.720,-130.736,-133.952,-294.990
0.535,0.476,0.732,-121.517,-130.271,-285.576
0.533,0.443,0.747,-112.487,-126.369,-276.593
0.529,0.414,0.763,-104.744,-122.658,-268.116
0.523,0.389,0.779,-98.871,-119.295,-260.196
0.516,0.366,0.793,-93.967,-115.898,-252.775
0.507,0.347,0.804,-91.263,-113.348,-246.060
0.495,0.329,0.816,-88.693,-110.875,-239.563
0.486,0.312,0.824,-87.055,-108.461,-233.436
0.475,0.298,0.830,-85.501,-106.118,-227.495
0.470,0.279,0.832,-84.268,-103.593,-222.148
0.460,0.260,0.841,-82.737,-100.140,-216.688
0.452,0.245,0.848,-81.344,-96.703,-210.826
0.441,0.226,0.855,-79.841,-93.607,-204.603
0.430,0.208,0.859,-78.005,-90.839,-199.355
0.420,0.193,0.865,-75.886,-88.345,-194.656
0.410,0.181,0.871,-73.903,-86.215,-189.741
0.400,0.169,0.877,-72.161,-84.214,-184.779
0.389,0.158,0.882,-70.409,-82.207,-180.005
0.380,0.148,0.888,-68.787,-79.965,-175.389
0.371,0.140,0.894,-67.273,-77.521,-170.718
0.362,0.132,0.899,-65.936,-75.190,-166.009
0.352,0.125,0.903,-64.751,-73.074,-161.298
0.343,0.118,0.908,-63.647,-71.078,-156.535
0.334,0.112,0.913,-62.720,-69.486,-151.807
0.326,0.107,0.919,-62.100,-68.103,-146.980
0.319,0.102,0.924,-61.734,-66.808,-142.105
0.311,0.096,0.928,-61.565,-65.580,-137.242
0.304,0.090,0.931,-61.419,-64.438,-132.356
0.297,0.083,0.933,-61.008,-63.277,-127.815
0.291,0.075,0.935,-60.366,-61.862,-123.205
0.286,0.066,0.938,-59.553,-59.041,-118.393
0.280,0.057,0.941,-58.588,-57.125,-113.619
0.275,0.049,0.944,-57.509,-55.192,-109.007
0.269,0.044,0.948,-56.336,-53.244,-104.462
0.263,0.040,0.952,-55.219,-51.230,-99.960
0.257,0.036,0.956,-54.163,-49.301,-95.569
0.250,0.032,0.961,-53.189,-47.554,-91.300
0.244,0.029,0.965,-52.354,-45.967,-87.092
0.238,0.027,0.970,-51.634,-44.465,-82.959
0.232,0.023,0.974,-51.006,-42.979,-78.919
0.227,0.019,0.977,-50.384,-41.511,-74.972
0.221,0.013,0.980,-49.648,-40.103,-71.125
0.217,0.007,0.982,-48.732,-38.755,-67.365
0.213,-0.000,0.984,-47.460,-37.418,-63.668
0.209,-0.007,0.987,-45.870,-36.052,-59.975
0.205,-0.012,0.990,-44.060,-34.612,-56.264
0.202,-0.016,0.993,-42.304,-33.099,-52.592
0.198,-0.019,0.997,-40.703,-31.506,-48.914
0.194,-0.022,1.000,-39.309,-29.905,-45.166
0.190,-0.024,1.003,-38.177,-28.342,-41.479
0.186,-0.027,1.006,-37.238,-26.865,-37.852
0.183,-0.030,1.009,-36.477,-25.450,-34.221
0.179,-0.033,1.011,-35.894,-24.078,-30.470
0.176,-0.037,1.014,-35.405,-22.757,-26.725
0.173,-0.041,1.016,-34.881,-21.480,-23.026
0.170,-0.047,1.018,-34.251,-20.211,-19.259
0.168,-0.053,1.020,-33.374,-18.927,-15.463
0.166,-0.059,1.021,-32.308,-17.603,-11.585
0.163,-0.064,1.023,-31.128,-16.244,-7.646
0.161,-0.069,1.025,-29.946,-14.875,-3.616
0.159,-0.072,1.027,-28.911,-13.540,0.417
0.157,-0.075,1.028,-27.950,-12.231,4.437
0.155,-0.078,1.029,-27.134,-10.968,8.565
0.152,-0.081,1.029,-26.370,-9.762,12.648
0.149,-0.084,1.028,-25.635,-8.695,16.708
0.146,-0.087,1.027,-24.872,-7.735,20.690
0.143,-0.090,1.026,-24.048,-6.882,24.606
0.140,-0.093,1.026,-23.030,-6.110,28.370
0.138,-0.097,1.025,-21.830,-5.380,32.029
0.136,-0.100,1.025,-20.495,-4.631,35.684
0.134,-0.103,1.024,-19.088,-3.845,39.389
0.132,-0.105,1.024,-17.679,-3.034,42.980
0.129,-0.105,1.024,-16.377,-2.215,46.451
0.127,-0.106,1.023,-15.220,-1.415,49.786
0.124,-0.106,1.022,-14.162,-0.674,52.960
0.120,-0.105,1.021,-13.266,-0.007,56.009
0.117,-0.105,1.020,-12.449,0.599,58.839
0.113,-0.104,1.019,-11.744,1.139,61.470
0.109,-0.104,1.018,-11.078,1.612,63.853
0.105,-0.103,1.018,-10.433,2.023,66.031
0.101,-0.103,1.018,-9.807,2.389,68.019
0.097,-0.103,1.018,-9.215,2.744,69.893
0.094,-0.102,1.018,-8.641,3.124,71.656

0.285,0.845,0.795,-16.737,-29.534,11.623
0.295,0.831,0.818,-29.940,-56.977,-40.243
0.306,0.815,0.843,-48.394,-80.034,-85.187
0.319,0.797,0.868,-71.812,-99.437,-124.346
0.331,0.777,0.895,-96.289,-115.765,-157.764
0.346,0.754,0.920,-118.572,-126.504,-185.764
0.363,0.727,0.932,-136.002,-133.322,-207.807
0.377,0.702,0.936,-148.786,-137.846,-221.985
0.387,0.683,0.926,-155.995,-139.676,-229.726
0.401,0.664,0.905,-159.131,-138.446,-233.488
0.416,0.634,0.888,-158.849,-136.468,-235.763
0.436,0.593,0.877,-155.517,-134.284,-235.242
0.455,0.547,0.874,-151.892,-131.999,-231.939
0.470,0.509,0.874,-147.439,-129.451,-227.115
0.479,0.477,0.879,-142.460,-126.684,-221.623
0.486,0.447,0.886,-137.909,-123.851,-215.862
0.488,0.420,0.893,-134.531,-121.106,-210.151
0.488,0.393,0.901,-131.578,-118.019,-205.004
0.486,0.366,0.909,-128.701,-114.774,-200.406
0.481,0.342,0.918,-125.887,-110.898,-195.083
0.475,0.319,0.926,-123.160,-107.183,-187.369
0.466,0.297,0.932,-120.563,-104.895,-181.336
0.458,0.276,0.943,-118.064,-102.598,-174.653
0.450,0.256,0.944,-115.682,-99.169,-168.668
0.446,0.237,0.956,-113.602,-93.897,-162.046
0.438,0.220,0.963,-111.706,-88.658,-153.040
0.425,0.203,0.969,-109.799,-84.603,-144.278
0.412,0.188,0.973,-107.814,-81.309,-136.505
0.401,0.174,0.978,-105.896,-78.425,-128.928
0.389,0.161,0.981,-103.917,-75.976,-121.371
0.377,0.149,0.984,-101.867,-73.441,-113.466
0.367,0.136,0.987,-99.811,-71.297,-105.548
0.356,0.126,0.990,-97.571,-69.377,-98.122
0.346,0.118,0.993,-95.151,-67.387,-90.998
0.337,0.113,0.996,-92.889,-65.199,-83.845
0.328,0.108,0.999,-90.720,-62.870,-77.004
0.320,0.104,1.001,-88.625,-60.359,-70.616
0.311,0.100,1.003,-86.563,-57.755,-64.742
0.302,0.098,1.004,-84.576,-55.110,-59.362
0.293,0.096,1.005,-82.661,-52.503,-54.489
0.283,0.094,1.005,-80.670,-50.071,-50.083
0.274,0.092,1.005,-78.512,-47.827,-46.058
0.264,0.091,1.006,-76.261,-45.658,-42.338
0.256,0.090,1.006,-73.917,-43.536,-38.852
0.248,0.089,1.007,-71.522,-41.497,-35.605
0.239,0.088,1.007,-69.041,-39.625,-32.583
0.231,0.088,1.008,-66.494,-37.929,-29.812
0.223,0.088,1.009,-63.919,-36.396,-27.262
0.215,0.088,1.010,-61.393,-34.966,-24.917
0.208,0.089,1.011,-58.960,-33.619,-22.770
0.202,0.090,1.012,-56.638,-32.347,-20.849
0.196,0.091,1.012,-54.502,-31.178,-19.100
0.190,0.093,1.013,-52.567,-30.120,-17.476
0.184,0.095,1.014,-50.861,-29.177,-15.978
