aX,aY,aZ,gX,gY,gZ
0.694,-1.706,0.520,526.540,131.950,-271.810
0.701,-1.750,0.660,527.921,135.888,-255.586
0.642,-1.663,0.797,400.614,123.012,-242.116
0.607,-1.639,0.839,208.691,104.889,-234.956
0.612,-1.599,0.821,43.789,93.485,-227.358
0.600,-1.573,0.783,-74.185,85.299,-215.317
0.573,-1.555,0.739,-131.820,71.560,-197.689
0.553,-1.532,0.704,-150.170,51.854,-179.696
0.539,-1.507,0.676,-141.951,29.314,-166.379
0.532,-1.493,0.650,-112.906,12.813,-159.264
0.529,-1.489,0.623,-80.174,2.252,-151.744
0.531,-1.493,0.592,-48.426,-9.241,-139.109
0.532,-1.497,0.570,-19.995,-19.170,-121.258
0.533,-1.497,0.558,4.460,-25.030,-101.638
0.533,-1.494,0.554,23.376,-27.393,-83.053
0.528,-1.489,0.554,33.907,-27.762,-67.565
0.517,-1.481,0.556,36.907,-27.216,-54.864
0.499,-1.468,0.553,32.545,-26.020,-44.828
0.480,-1.452,0.548,21.393,-24.198,-37.793
0.462,-1.435,0.541,6.495,-22.057,-34.354
0.445,-1.418,0.532,-9.710,-20.026,-32.508
0.430,-1.401,0.521,-23.999,-18.402,-31.298
0.417,-1.384,0.507,-35.620,-17.238,-30.325
0.408,-1.369,0.493,-43.597,-16.162,-29.495
0.400,-1.354,0.477,-47.343,-14.958,-28.731
0.393,-1.343,0.461,-45.706,-13.579,-28.151
0.387,-1.334,0.446,-41.091,-11.968,-27.483
0.382,-1.326,0.432,-34.806,-10.072,-26.338
0.376,-1.319,0.418,-27.888,-7.941,-24.348
0.368,-1.312,0.406,-20.877,-5.765,-21.190
0.359,-1.305,0.396,-14.544,-3.639,-17.661
0.350,-1.297,0.386,-8.911,-1.523,-14.195
0.341,-1.288,0.378,-4.283,0.535,-11.081
0.331,-1.279,0.370,-0.780,2.458,-8.486
0.322,-1.270,0.362,1.954,4.211,-6.564
0.313,-1.261,0.355,3.721,5.619,-5.114
0.303,-1.250,0.348,4.601,6.732,-3.904
0.294,-1.240,0.341,4.749,7.624,-3.039
0.286,-1.231,0.334,4.301,8.300,-2.518
0.279,-1.222,0.327,3.448,8.848,-2.228
0.272,-1.213,0.319,2.335,9.238,-2.053
0.265,-1.205,0.312,1.127,9.373,-2.051
0.260,-1.198,0.305,-0.193,9.296,-2.202
0.254,-1.191,0.298,-1.851,9.016,-2.456
0.249,-1.184,0.292,-3.702,8.437,-2.802
0.244,-1.177,0.286,-5.574,7.551,-3.264
0.238,-1.171,0.282,-7.687,6.282,-3.713
0.233,-1.165,0.277,-10.191,4.520,-4.234
0.228,-1.159,0.272,-12.871,2.176,-4.911
0.223,-1.152,0.267,-15.938,-0.785,-5.583
0.218,-1.146,0.262,-18.994,-4.019,-6.195
0.214,-1.140,0.257,-21.883,-7.232,-6.681
0.211,-1.135,0.253,-24.130,-10.012,-6.822
0.209,-1.130,0.249,-25.689,-10.713,-6.646
0.208,-1.126,0.244,-26.376,-11.690,-6.145
0.207,-1.123,0.240,-26.032,-11.741,-5.383
0.206,-1.121,0.236,-24.393,-10.981,-4.213
0.206,-1.118,0.232,-22.106,-9.627,-2.884
0.205,-1.114,0.228,-19.551,-7.802,-1.611
0.203,-1.110,0.224,-17.100,-5.966,-0.615
0.201,-1.106,0.219,-15.096,-4.338,-0.124
0.198,-1.102,0.215,-13.679,-2.999,-0.049
0.195,-1.098,0.210,-12.832,-2.074,-0.449
0.193,-1.094,0.206,-12.491,-1.390,-1.233
0.191,-1.091,0.201,-12.486,-0.823,-2.263
0.190,-1.088,0.196,-12.358,-0.306,-3.484
0.188,-1.087,0.192,-11.949,0.207,-4.710
0.188,-1.085,0.188,-11.315,0.782,-5.730
0.187,-1.084,0.185,-10.429,1.424,-6.353
0.187,-1.083,0.181,-9.179,2.193,-6.571
0.186,-1.082,0.179,-7.529,3.042,-6.284
0.184,-1.080,0.176,-5.760,3.878,-5.622
0.182,-1.079,0.175,-3.915,4.640,-4.715
0.180,-1.077,0.173,-2.134,5.302,-3.726
0.178,-1.074,0.172,-0.534,5.853,-2.795
0.175,-1.072,0.170,0.764,6.259,-2.028
0.173,-1.069,0.168,1.461,6.488,-1.578
0.171,-1.067,0.167,1.626,6.573,-1.450
0.168,-1.065,0.165,1.141,6.557,-1.636
0.166,-1.063,0.163,0.212,6.366,-2.052
0.165,-1.060,0.161,-1.195,6.074,-2.541
0.163,-1.058,0.158,-2.963,5.730,-3.049
0.161,-1.056,0.156,-4.777,5.318,-3.455
0.160,-1.053,0.153,-6.823,4.851,-3.668
0.158,-1.052,0.150,-8.347,4.189,-4.001
0.157,-1.052,0.147,-9.380,3.405,-4.275
0.156,-1.051,0.144,-9.912,2.559,-4.348
0.155,-1.050,0.141,-10.304,1.648,-4.287
0.154,-1.049,0.138,-10.734,0.670,-4.204
0.153,-1.048,0.136,-10.996,-0.336,-4.224
0.152,-1.048,0.134,-11.083,-1.408,-4.309
0.151,-1.048,0.132,-10.870,-2.428,-4.399
0.151,-1.049,0.129,-10.243,-3.341,-4.467
0.151,-1.048,0.127,-9.228,-4.071,-4.462
0.150,-1.047,0.125,-7.781,-4.635,-4.362
0.149,-1.046,0.123,-6.197,-4.957,-4.178
0.148,-1.044,0.121,-4.508,-5.113,-3.998
0.147,-1.042,0.118,-2.732,-5.117,-3.843
0.146,-1.041,0.116,-0.883,-5.060,-3.763
0.145,-1.039,0.115,0.914,-5.024,-3.785
0.145,-1.037,0.113,2.458,-4.990,-3.824
0.144,-1.036,0.112,3.590,-4.954,-3.960
0.144,-1.034,0.111,4.477,-4.928,-4.221
0.144,-1.033,0.110,5.250,-4.874,-4.549
0.144,-1.032,0.108,5.979,-4.776,-4.866
0.144,-1.031,0.107,6.755,-4.672,-5.146
0.144,-1.029,0.106,7.518,-4.595,-5.387
0.143,-1.028,0.105,8.280,-4.544,-5.617
0.143,-1.027,0.104,9.053,-4.523,-5.787
0.142,-1.025,0.103,9.699,-4.533,-5.862
0.142,-1.023,0.102,10.227,-4.569,-5.897
0.141,-1.021,0.101,10.582,-4.664,-5.948
0.140,-1.020,0.099,10.821,-4.788,-6.040
0.140,-1.019,0.098,10.940,-4.936,-6.189
0.140,-1.018,0.097,10.990,-5.114,-6.396
0.139,-1.017,0.096,10.916,-5.298,-6.609
0.139,-1.016,0.095,10.770,-5.480,-6.776
0.139,-1.015,0.094,10.573,-5.646,-6.869
0.140,-1.015,0.094,10.394,-5.815,-6.914
0.140,-1.015,0.094,10.274,-5.968,-6.817
0.140,-1.014,0.094,10.214,-6.103,-6.597
0.140,-1.014,0.095,10.110,-6.207,-6.238
0.140,-1.013,0.095,9.897,-6.274,-5.759
0.140,-1.012,0.095,9.548,-6.381,-5.191
0.139,-1.011,0.095,9.041,-6.512,-4.583
0.139,-1.010,0.095,8.124,-6.652,-3.985
0.138,-1.009,0.095,7.016,-6.810,-3.465
0.138,-1.009,0.095,5.809,-6.980,-3.096
0.138,-1.008,0.095,4.656,-7.122,-2.843
0.138,-1.008,0.096,3.582,-7.184,-2.687
0.138,-1.009,0.096,2.682,-7.160,-2.586
0.138,-1.009,0.096,1.940,-7.064,-2.487
0.138,-1.009,0.097,1.363,-6.880,-2.358
0.138,-1.010,0.097,0.969,-6.600,-2.176
0.138,-1.010,0.097,0.729,-6.266,-1.890
0.138,-1.006,0.097,0.588,-5.904,-1.431
0.137,-1.006,0.097,0.500,-5.522,-0.928
0.137,-1.005,0.097,0.425,-5.152,-0.446
0.136,-1.005,0.097,0.403,-4.808,-0.024
0.136,-1.004,0.097,0.406,-4.501,0.344
0.135,-1.004,0.098,0.460,-4.245,0.604
0.135,-1.003,0.098,0.517,-4.025,0.725
0.134,-1.003,0.098,0.607,-3.814,0.762
0.134,-1.003,0.098,0.693,-3.640,0.704
0.133,-1.003,0.098,0.788,-3.506,0.638
0.133,-1.004,0.098,0.941,-3.392,0.611
0.133,-1.004,0.099,1.113,-3.277,0.632
0.133,-1.003,0.098,1.269,-3.165,0.704
0.132,-1.003,0.098,1.319,-3.051,0.882
0.132,-1.002,0.098,1.342,-2.940,1.096
0.132,-1.002,0.098,1.257,-2.853,1.296
0.132,-1.001,0.098,1.144,-2.816,1.463
0.132,-1.001,0.098,0.995,-2.811,1.569
0.132,-1.000,0.098,0.796,-2.861,1.632
0.132,-1.000,0.098,0.575,-2.946,1.637
0.132,-1.000,0.098,0.407,-3.051,1.601
0.132,-1.000,0.098,0.306,-3.176,1.557
0.132,-1.000,0.098,0.251,-3.293,1.529
0.133,-1.000,0.097,0.265,-3.364,1.523
0.133,-1.000,0.097,0.319,-3.402,1.623
0.133,-0.999,0.097,0.406,-3.412,1.805
0.133,-0.999,0.096,0.469,-3.392,2.049
0.133,-0.998,0.095,0.400,-3.374,2.271
0.133,-0.997,0.095,0.208,-3.373,2.451
0.133,-0.997,0.095,-0.101,-3.393,2.529
0.133,-0.996,0.094,-0.405,-3.441,2.496
0.133,-0.996,0.094,-0.778,-3.508,2.388
0.133,-0.996,0.094,-1.116,-3.587,2.245
0.133,-0.996,0.094,-1.446,-3.649,2.070
0.133,-0.996,0.094,-1.655,-3.670,1.886
0.134,-0.996,0.093,-1.792,-3.630,1.751
0.134,-0.996,0.093,-1.806,-3.536,1.687
0.134,-0.995,0.093,-1.747,-3.369,1.699
0.134,-0.994,0.092,-1.706,-3.148,1.788
0.134,-0.993,0.092,-1.743,-2.920,1.842
0.134,-0.993,0.092,-1.795,-2.701,1.834
0.134,-0.992,0.091,-1.922,-2.516,1.730
0.133,-0.992,0.091,-2.019,-2.365,1.527
0.133,-0.991,0.090,-2.153,-2.267,1.210
0.133,-0.992,0.090,-2.227,-2.225,0.822
0.133,-0.992,0.090,-2.239,-2.189,0.450
0.133,-0.992,0.089,-2.249,-2.155,0.124
0.134,-0.993,0.089,-2.187,-2.082,-0.140
0.134,-0.993,0.089,-2.103,-1.969,-0.318
0.134,-0.994,0.088,-1.860,-1.814,-0.365
0.134,-0.994,0.088,-1.521,-1.645,-0.325
0.135,-0.994,0.088,-1.131,-1.462,-0.213
0.135,-0.993,0.088,-0.788,-1.285,-0.066
0.135,-0.993,0.088,-0.453,-1.138,0.094
0.134,-0.993,0.088,-0.157,-1.020,0.187
0.134,-0.993,0.088,0.086,-0.941,0.215
0.134,-0.993,0.087,0.284,-0.890,0.202
0.133,-0.992,0.087,0.364,-0.867,0.089
0.133,-0.992,0.087,0.392,-0.837,-0.108
0.133,-0.992,0.087,0.366,-0.813,-0.356
0.133,-0.993,0.087,0.303,-0.782,-0.581
0.133,-0.993,0.087,0.300,-0.741,-0.792
0.133,-0.993,0.087,0.317,-0.686,-0.978
0.133,-0.993,0.088,0.402,-0.599,-1.091

1.109,-1.207,0.603,10.718,-24.797,-28.177
1.138,-1.446,0.758,36.275,-19.269,-36.029
1.150,-1.404,0.875,45.476,-15.591,-41.431
1.101,-1.373,0.898,-9.007,-14.513,-46.710
1.061,-1.356,0.872,-76.952,-15.073,-51.322
1.043,-1.369,0.827,-116.462,-13.307,-56.237
1.016,-1.391,0.781,-122.293,-12.468,-58.018
0.986,-1.411,0.733,-112.393,-15.595,-55.430
0.966,-1.412,0.684,-93.749,-22.617,-50.565
0.950,-1.411,0.637,-72.880,-29.261,-44.589
0.937,-1.413,0.595,-50.946,-34.566,-37.630
0.923,-1.411,0.560,-29.637,-40.012,-28.736
0.907,-1.406,0.530,-11.290,-45.407,-19.376
0.892,-1.405,0.509,3.547,-49.640,-12.082
0.880,-1.407,0.497,15.275,-51.843,-6.285
0.868,-1.410,0.494,23.962,-51.234,-1.234
0.856,-1.411,0.493,29.172,-49.299,3.272
0.839,-1.406,0.491,28.598,-46.690,7.256
0.820,-1.392,0.487,25.732,-43.847,10.468
0.798,-1.375,0.479,19.557,-41.081,12.676
0.775,-1.358,0.467,11.849,-38.688,14.271
0.750,-1.342,0.454,4.652,-36.837,15.960
0.728,-1.326,0.441,-0.823,-35.180,18.045
0.708,-1.311,0.429,-4.330,-33.491,20.357
0.689,-1.296,0.417,-5.050,-31.715,21.876
0.671,-1.280,0.406,-3.372,-29.858,22.153
0.653,-1.264,0.396,0.374,-28.018,21.386
0.636,-1.250,0.389,5.419,-26.282,20.126
0.620,-1.236,0.383,11.274,-24.591,18.932
0.604,-1.224,0.378,17.401,-22.810,18.362
0.591,-1.214,0.374,22.413,-20.896,18.237
0.579,-1.204,0.370,25.668,-18.928,18.253
0.567,-1.194,0.365,26.809,-16.926,18.150
0.555,-1.184,0.358,25.685,-15.013,17.711
0.541,-1.174,0.350,22.583,-13.226,16.740
0.528,-1.165,0.343,17.987,-11.611,13.908
0.515,-1.157,0.334,12.095,-10.219,12.208
0.503,-1.151,0.326,6.272,-9.030,10.380
0.492,-1.145,0.317,0.912,-8.002,8.515
0.482,-1.140,0.308,-3.692,-7.155,6.689
0.474,-1.136,0.298,-7.408,-6.484,5.061
0.466,-1.134,0.289,-10.086,-6.034,3.814
0.458,-1.132,0.280,-11.337,-5.787,2.973
0.451,-1.130,0.272,-11.585,-5.736,2.573
0.445,-1.128,0.263,-10.953,-5.830,2.513
0.439,-1.126,0.254,-9.726,-5.968,2.675
0.433,-1.124,0.245,-8.241,-6.085,2.954
0.427,-1.120,0.237,-6.548,-6.216,3.271
0.420,-1.117,0.228,-5.068,-6.575,3.516
0.412,-1.112,0.221,-3.980,-7.558,3.657
0.404,-1.108,0.215,-3.290,-9.014,3.712
0.396,-1.103,0.210,-3.154,-10.883,3.730
0.389,-1.099,0.205,-3.758,-12.709,3.667
0.383,-1.095,0.201,-4.130,-14.177,3.621
0.377,-1.091,0.198,-4.179,-15.017,3.722
0.373,-1.087,0.195,-3.854,-14.906,4.026
0.368,-1.083,0.192,-3.231,-14.003,4.517
0.363,-1.078,0.189,-2.297,-12.464,5.086
0.359,-1.074,0.186,-0.764,-10.491,5.860
0.354,-1.070,0.184,1.267,-8.328,6.675
0.348,-1.067,0.181,3.450,-6.058,6.623
0.343,-1.060,0.179,4.999,-3.868,5.722
0.335,-1.055,0.174,5.108,-2.281,5.335
0.327,-1.052,0.171,5.033,-1.615,4.476
0.320,-1.048,0.167,4.261,-1.802,2.758
0.314,-1.043,0.165,3.023,-1.660,0.747
0.311,-1.041,0.163,2.053,-0.887,-1.260
0.309,-1.039,0.159,1.592,0.097,-2.889
0.305,-1.038,0.156,1.528,1.020,-3.870
0.300,-1.036,0.154,1.766,1.884,-4.197
0.297,-1.035,0.152,2.271,2.754,-4.006
0.294,-1.034,0.150,3.088,3.688,-3.446
0.291,-1.032,0.148,4.017,4.601,-2.843
0.287,-1.031,0.146,4.740,5.272,-2.348
0.283,-1.029,0.144,5.050,5.694,-2.158
0.279,-1.027,0.142,4.842,5.789,-2.372
0.275,-1.025,0.140,4.074,5.661,-2.977
0.271,-1.024,0.138,2.921,5.389,-3.812
0.267,-1.022,0.136,1.606,5.076,-4.760
0.263,-1.022,0.133,0.529,4.785,-5.641
0.260,-1.021,0.131,-0.237,4.553,-6.395
0.258,-1.021,0.129,-0.688,4.393,-7.032
0.255,-1.022,0.127,-0.869,4.303,-7.594
0.253,-1.022,0.125,-0.846,4.267,-7.987
0.251,-1.023,0.123,-0.695,4.226,-8.257
0.249,-1.023,0.121,-0.508,4.103,-8.430
0.247,-1.023,0.119,-0.356,3.807,-8.508
0.244,-1.023,0.118,-0.224,3.363,-8.528
0.242,-1.023,0.116,-0.129,2.749,-8.500
0.240,-1.023,0.115,-0.065,1.996,-8.376
0.238,-1.022,0.114,-0.075,1.153,-8.156
0.236,-1.022,0.113,-0.112,0.271,-7.884
0.234,-1.021,0.113,-0.115,-0.510,-7.617
0.233,-1.020,0.112,-0.053,-1.167,-7.385
0.231,-1.019,0.112,0.028,-1.713,-7.107
0.230,-1.018,0.112,0.099,-2.136,-6.799
0.229,-1.017,0.112,0.067,-2.419,-6.500
0.228,-1.016,0.111,-0.035,-2.534,-6.273
0.227,-1.015,0.111,-0.170,-2.564,-6.065
0.226,-1.014,0.110,-0.296,-2.539,-5.880
0.225,-1.013,0.109,-0.276,-2.484,-5.711
0.224,-1.012,0.109,-0.073,-2.447,-5.556
0.223,-1.011,0.109,0.232,-2.417,-5.373
0.222,-1.010,0.108,0.634,-2.380,-5.200
0.222,-1.010,0.107,1.256,-2.350,-4.988
0.221,-1.009,0.107,1.941,-2.336,-4.718
0.221,-1.008,0.106,2.618,-2.350,-4.381
0.220,-1.007,0.106,3.251,-2.379,-3.989
0.219,-1.007,0.106,3.838,-2.394,-3.565
0.218,-1.006,0.105,4.402,-2.420,-3.153
0.218,-1.006,0.105,4.884,-2.449,-2.740
0.217,-1.005,0.105,5.212,-2.472,-2.404
0.216,-1.004,0.105,5.399,-2.486,-2.161
0.215,-1.003,0.105,5.498,-2.469,-2.016
0.215,-1.003,0.105,5.420,-2.426,-1.935
0.214,-1.002,0.104,5.152,-2.370,-1.856
0.214,-1.002,0.104,4.845,-2.314,-1.789
0.213,-1.001,0.104,4.588,-2.253,-1.745
0.213,-1.001,0.104,4.456,-2.184,-1.711
0.212,-1.001,0.103,4.396,-2.092,-1.673
0.212,-1.000,0.103,4.406,-1.984,-1.575
0.211,-0.999,0.102,4.461,-1.881,-1.456
0.211,-0.999,0.102,4.554,-1.806,-1.329
0.211,-0.999,0.103,4.644,-1.769,-1.166
0.210,-0.999,0.103,4.740,-1.768,-0.976
0.210,-0.998,0.104,4.824,-1.797,-0.754
0.209,-0.998,0.104,4.833,-1.852,-0.498
0.209,-0.997,0.104,4.598,-1.919,-0.229
0.208,-0.997,0.104,4.175,-2.036,0.007
0.208,-0.996,0.104,3.642,-2.182,0.199
0.207,-0.995,0.104,3.015,-2.343,0.351
0.206,-0.994,0.104,2.258,-2.495,0.479
0.206,-0.993,0.104,1.480,-2.607,0.555
0.205,-0.992,0.103,0.785,-2.694,0.538
0.205,-0.992,0.103,0.265,-2.784,0.477
0.204,-0.992,0.103,-0.060,-2.881,0.449
0.204,-0.992,0.104,-0.179,-2.972,0.475
0.204,-0.992,0.104,-0.111,-3.031,0.569
0.203,-0.992,0.104,0.128,-3.053,0.743
0.203,-0.992,0.104,0.408,-3.035,0.995
0.203,-0.991,0.104,0.723,-2.993,1.262
0.203,-0.991,0.105,1.113,-2.933,1.512
0.202,-0.991,0.105,1.533,-2.844,1.741
0.202,-0.991,0.105,1.872,-2.722,1.928
0.202,-0.990,0.105,1.982,-2.589,2.070
0.201,-0.989,0.105,1.943,-2.437,2.142
0.201,-0.988,0.104,1.730,-2.293,2.115
0.200,-0.988,0.104,1.455,-2.201,1.960
0.200,-0.987,0.105,1.215,-2.143,1.754
0.200,-0.987,0.105,1.006,-2.070,1.521
0.200,-0.987,0.105,0.913,-1.961,1.284
0.200,-0.987,0.106,0.859,-1.839,1.083
0.200,-0.987,0.106,0.857,-1.712,0.933
0.200,-0.987,0.106,0.917,-1.575,0.834
0.200,-0.987,0.105,1.058,-1.422,0.766
0.200,-0.987,0.105,1.217,-1.271,0.755
0.200,-0.986,0.105,1.337,-1.149,0.785
0.199,-0.986,0.105,1.292,-1.085,0.818
0.199,-0.986,0.105,1.119,-1.057,0.825
0.199,-0.986,0.105,0.843,-1.049,0.759
0.199,-0.985,0.106,0.433,-1.075,0.663
0.199,-0.985,0.106,-0.069,-1.160,0.559
0.199,-0.985,0.106,-0.605,-1.282,0.429
0.198,-0.985,0.106,-1.198,-1.423,0.288
0.198,-0.984,0.107,-1.724,-1.557,0.147
0.198,-0.984,0.106,-2.219,-1.688,0.006
0.198,-0.984,0.106,-2.695,-1.823,-0.079
0.197,-0.984,0.106,-3.156,-1.962,-0.140
0.197,-0.984,0.106,-3.521,-2.120,-0.174
0.196,-0.984,0.106,-3.830,-2.308,-0.205
0.196,-0.984,0.106,-4.055,-2.517,-0.233
0.196,-0.984,0.105,-4.243,-2.741,-0.243
0.195,-0.984,0.105,-4.442,-2.972,-0.263
0.195,-0.984,0.105,-4.633,-3.207,-0.275
0.195,-0.984,0.105,-4.809,-3.440,-0.248
0.195,-0.985,0.105,-4.972,-3.664,-0.177
0.195,-0.985,0.105,-5.104,-3.834,-0.090
0.194,-0.985,0.105,-5.096,-3.959,0.024
0.194,-0.985,0.104,-5.010,-4.036,0.158
0.194,-0.985,0.104,-4.855,-4.052,0.303
0.194,-0.985,0.103,-4.641,-4.023,0.436
0.193,-0.984,0.103,-4.427,-3.973,0.570
0.193,-0.984,0.103,-4.250,-3.937,0.648
0.193,-0.984,0.102,-4.068,-3.906,0.674
0.193,-0.984,0.102,-3.892,-3.877,0.643
0.192,-0.984,0.102,-3.703,-3.831,0.592
0.192,-0.983,0.102,-3.494,-3.781,0.522
0.192,-0.983,0.102,-3.338,-3.729,0.431
0.192,-0.984,0.102,-3.210,-3.669,0.325
0.192,-0.984,0.102,-3.072,-3.583,0.255
0.192,-0.984,0.102,-2.890,-3.441,0.196
0.192,-0.984,0.101,-2.696,-3.280,0.141
0.192,-0.984,0.101,-2.458,-3.107,0.086
0.192,-0.984,0.101,-2.154,-2.915,0.035
0.192,-0.984,0.101,-1.862,-2.697,0.021
0.192,-0.984,0.100,-1.572,-2.466,0.014
0.192,-0.984,0.100,-1.361,-2.258,-0.037
0.192,-0.984,0.100,-1.116,-2.070,-0.106
0.192,-0.984,0.100,-0.893,-1.904,-0.224

0.355,-1.213,0.290,3.123,-1.027,6.139
0.355,-1.213,0.291,5.634,0.165,12.472
0.353,-1.211,0.291,6.877,1.474,18.516
0.350,-1.211,0.288,7.187,2.806,24.062
0.347,-1.210,0.284,7.274,4.075,29.119
0.342,-1.211,0.279,7.477,5.158,33.663
0.337,-1.212,0.274,7.814,5.998,37.763
0.332,-1.214,0.268,8.244,6.574,41.577
0.326,-1.216,0.263,8.771,7.043,45.223
0.320,-1.218,0.258,9.433,7.461,48.679
0.314,-1.220,0.253,10.131,7.885,51.978
0.308,-1.223,0.248,10.696,8.415,55.210
0.303,-1.225,0.243,10.988,9.084,58.682
0.296,-1.227,0.237,11.163,9.860,62.242
0.290,-1.228,0.231,11.342,10.656,65.793
0.282,-1.228,0.225,11.499,11.395,69.256
0.275,-1.228,0.219,11.522,12.029,72.607
0.267,-1.227,0.212,11.583,12.508,75.898
0.259,-1.226,0.205,11.827,12.824,79.109
0.249,-1.225,0.199,12.660,12.860,82.183
0.240,-1.223,0.194,14.045,12.572,85.103
0.232,-1.222,0.191,15.860,12.013,88.108
0.223,-1.219,0.189,18.342,11.337,91.256
0.215,-1.216,0.189,21.793,10.643,94.319
0.208,-1.212,0.190,26.192,10.004,97.223
0.200,-1.207,0.192,31.729,9.576,100.052
0.194,-1.201,0.195,38.402,9.304,102.870
0.188,-1.194,0.199,45.740,9.209,105.876
0.183,-1.186,0.202,53.428,9.385,109.389
0.179,-1.178,0.207,61.197,9.864,113.489
0.174,-1.168,0.212,68.864,10.604,118.490
0.168,-1.157,0.217,75.871,11.615,123.950
0.161,-1.145,0.221,82.038,12.807,130.175
0.154,-1.131,0.223,87.465,14.130,137.162
0.147,-1.117,0.223,92.173,15.626,144.530
0.138,-1.103,0.223,96.136,17.229,151.766
0.129,-1.088,0.222,99.426,18.903,158.341
0.120,-1.073,0.219,101.883,20.974,163.865
0.109,-1.058,0.216,103.451,23.629,167.540
0.098,-1.041,0.213,103.562,26.947,169.012
0.085,-1.023,0.208,102.240,31.092,169.169
0.073,-1.003,0.201,99.761,36.103,168.242
0.059,-0.982,0.194,96.228,41.838,166.362
0.046,-0.959,0.185,91.825,48.411,163.701
0.032,-0.934,0.176,86.717,55.305,160.280
0.017,-0.908,0.166,81.095,62.354,156.221
0.002,-0.880,0.155,75.123,69.434,151.610
-0.013,-0.851,0.144,68.473,76.463,146.277
-0.029,-0.821,0.131,61.738,83.269,140.736
-0.045,-0.790,0.116,55.263,89.942,134.989
-0.062,-0.759,0.098,48.341,96.807,128.966
-0.080,-0.726,0.077,41.024,103.237,122.802
-0.100,-0.691,0.056,32.191,108.797,116.389
-0.122,-0.654,0.033,20.029,113.135,109.358
-0.145,-0.618,0.008,2.796,116.292,101.977
-0.168,-0.585,-0.017,-16.655,118.131,94.209
-0.192,-0.557,-0.042,-36.857,118.334,86.122
-0.212,-0.532,-0.066,-56.400,118.043,77.918
-0.230,-0.512,-0.089,-74.993,117.238,69.849
-0.244,-0.497,-0.111,-90.823,116.131,62.258
-0.254,-0.486,-0.134,-102.560,114.992,55.286
-0.260,-0.477,-0.158,-110.079,114.016,49.105
-0.266,-0.469,-0.184,-113.664,113.126,43.082
-0.272,-0.460,-0.208,-112.776,112.161,34.291
-0.278,-0.448,-0.230,-110.397,110.907,23.615
-0.284,-0.434,-0.245,-107.374,108.233,10.783
-0.287,-0.418,-0.255,-104.055,103.402,-3.994
-0.285,-0.401,-0.257,-100.349,95.139,-21.098
-0.275,-0.385,-0.254,-96.214,82.452,-39.603
-0.260,-0.366,-0.251,-91.269,63.660,-59.513
-0.243,-0.347,-0.255,-85.857,41.160,-81.101
-0.226,-0.327,-0.265,-79.955,15.826,-105.507
-0.209,-0.311,-0.281,-73.222,-11.140,-131.445
-0.193,-0.299,-0.296,-65.509,-40.450,-158.381
-0.174,-0.284,-0.314,-56.251,-69.982,-184.580
-0.152,-0.279,-0.343,-44.083,-95.409,-213.647
-0.120,-0.296,-0.380,-30.532,-115.419,-244.269
-0.079,-0.317,-0.399,-16.845,-134.817,-270.395
-0.034,-0.332,-0.399,-4.648,-157.601,-288.486
0.012,-0.345,-0.379,-7.323,-188.894,-298.223
0.201,-0.747,0.008,-77.617,-188.883,-299.887
0.347,-1.218,0.122,-34.672,-150.371,-306.831
0.386,-1.221,0.179,-22.604,-78.014,-248.732
0.352,-1.169,0.188,-46.923,-73.657,-203.393
0.311,-1.198,0.167,-75.086,-74.101,-196.734
0.290,-1.205,0.145,-91.573,-76.775,-193.653
0.285,-1.193,0.122,-98.421,-81.241,-185.545
0.266,-1.193,0.108,-103.205,-84.855,-172.241
0.262,-1.198,0.101,-104.558,-95.550,-163.130
0.277,-1.211,0.102,-98.851,-104.757,-156.326
0.288,-1.222,0.104,-87.291,-106.161,-148.434
0.295,-1.226,0.103,-72.966,-103.850,-136.369
0.297,-1.231,0.102,-57.981,-101.002,-122.122
0.296,-1.239,0.101,-44.058,-98.644,-106.742
0.300,-1.246,0.104,-31.340,-95.632,-90.987
0.306,-1.250,0.103,-19.899,-91.639,-75.141
0.307,-1.248,0.100,-9.923,-87.234,-58.963
0.301,-1.239,0.094,-1.689,-82.807,-43.917
0.291,-1.225,0.087,4.017,-78.514,-31.158
0.278,-1.209,0.083,7.403,-74.433,-21.645
0.266,-1.193,0.082,8.536,-70.616,-15.073
0.254,-1.178,0.084,5.649,-67.087,-11.190
0.243,-1.165,0.087,3.969,-63.839,-8.787
0.234,-1.152,0.091,2.285,-60.798,-7.477
0.228,-1.141,0.095,1.149,-57.858,-6.940
0.222,-1.130,0.099,0.525,-55.030,-6.879
0.217,-1.119,0.103,0.288,-52.306,-6.858
0.213,-1.112,0.106,0.941,-49.582,-6.079
0.209,-1.105,0.108,2.448,-46.690,-4.480
0.206,-1.099,0.110,4.688,-43.528,-2.448
0.204,-1.093,0.111,7.156,-40.370,-0.562
0.199,-1.086,0.110,9.224,-37.310,0.532
0.194,-1.078,0.109,10.111,-34.403,0.726
0.187,-1.070,0.107,9.669,-31.733,0.054
0.180,-1.062,0.104,7.924,-29.351,-1.313
0.175,-1.056,0.100,5.145,-27.291,-3.109
0.170,-1.052,0.097,1.664,-25.477,-5.987
0.167,-1.049,0.095,-2.031,-23.923,-8.018
0.164,-1.048,0.093,-5.377,-22.612,-9.929
0.161,-1.047,0.092,-8.095,-21.560,-11.599
0.159,-1.048,0.091,-10.015,-20.663,-12.940
0.158,-1.048,0.090,-11.052,-19.868,-13.913
0.157,-1.049,0.089,-10.940,-19.126,-14.402
0.156,-1.050,0.087,-10.221,-18.465,-14.537
0.154,-1.050,0.084,-9.132,-17.907,-14.353
0.153,-1.050,0.081,-7.952,-17.511,-13.984
0.151,-1.049,0.078,-9.068,-17.410,-13.565
0.149,-1.048,0.075,-8.618,-17.803,-13.251
0.147,-1.046,0.071,-9.005,-18.864,-13.089
0.145,-1.045,0.068,-10.120,-20.696,-13.089
0.144,-1.043,0.066,-11.575,-22.662,-13.218
0.143,-1.043,0.065,-13.189,-24.537,-13.391
0.143,-1.042,0.063,-14.466,-26.020,-13.471
0.144,-1.042,0.065,-15.432,-26.736,-13.244
0.145,-1.043,0.064,-15.355,-26.558,-12.733
0.146,-1.043,0.065,-14.237,-25.546,-11.436
0.148,-1.044,0.065,-11.368,-23.903,-9.569
0.149,-1.046,0.066,-7.562,-21.757,-8.722
0.149,-1.042,0.067,-3.969,-19.469,-8.149
0.148,-1.041,0.067,-1.128,-17.425,-6.830
0.145,-1.041,0.066,1.763,-15.896,-5.977
0.142,-1.039,0.065,3.879,-14.805,-5.800
0.140,-1.035,0.065,5.046,-13.410,-6.285
0.140,-1.032,0.066,5.577,-11.868,-7.189
0.139,-1.030,0.066,5.717,-10.456,-8.315
0.137,-1.028,0.067,5.535,-9.212,-9.485
0.135,-1.027,0.067,5.149,-8.108,-10.363
0.135,-1.028,0.068,4.991,-7.027,-10.726
0.135,-1.029,0.068,5.240,-5.774,-10.540
0.135,-1.030,0.069,5.903,-4.458,-9.866
0.135,-1.030,0.070,6.782,-3.249,-8.769
0.134,-1.031,0.070,7.720,-2.298,-7.284
0.132,-1.030,0.070,8.507,-1.660,-5.776
0.130,-1.029,0.070,8.959,-1.388,-4.527
0.128,-1.027,0.071,8.959,-1.631,-3.775
0.126,-1.026,0.071,8.433,-2.196,-3.606
0.125,-1.024,0.071,7.317,-2.932,-4.065
0.124,-1.023,0.071,5.999,-3.692,-4.731
0.123,-1.022,0.071,4.717,-4.376,-5.429
0.123,-1.022,0.072,3.666,-4.878,-6.052
0.122,-1.022,0.072,2.983,-5.185,-6.542
0.122,-1.022,0.073,2.649,-5.258,-6.910
0.122,-1.022,0.073,2.681,-5.088,-7.226
0.122,-1.022,0.074,2.807,-4.738,-7.482
0.122,-1.021,0.075,2.973,-4.364,-7.712
0.122,-1.020,0.076,3.038,-4.122,-7.906
0.121,-1.019,0.076,2.921,-4.072,-8.017
0.120,-1.018,0.076,2.494,-4.179,-8.077
0.119,-1.017,0.075,1.859,-4.453,-8.161
0.119,-1.017,0.074,1.185,-4.892,-8.244
0.120,-1.017,0.074,0.554,-5.438,-8.293
0.121,-1.016,0.074,0.024,-5.983,-8.324
0.121,-1.016,0.074,-0.347,-6.464,-8.301
0.122,-1.015,0.074,-0.461,-6.847,-8.148
0.123,-1.015,0.074,-0.336,-7.102,-7.947
0.124,-1.015,0.074,-0.005,-7.192,-7.687
0.125,-1.015,0.075,0.557,-7.128,-7.375
0.126,-1.014,0.075,1.272,-6.951,-7.041
0.127,-1.013,0.075,2.093,-6.691,-6.675
0.127,-1.012,0.076,2.862,-6.389,-6.320
0.128,-1.011,0.077,3.478,-6.072,-5.995
0.128,-1.009,0.077,3.991,-5.774,-5.728
0.129,-1.008,0.078,4.413,-5.500,-5.529
0.129,-1.008,0.078,4.716,-5.233,-5.383
0.130,-1.007,0.078,4.855,-4.975,-5.287
0.130,-1.006,0.078,4.860,-4.755,-5.192
0.131,-1.005,0.079,4.737,-4.559,-5.060
0.131,-1.004,0.079,4.545,-4.385,-4.928
0.132,-1.003,0.079,4.337,-4.229,-4.829
0.132,-1.003,0.079,4.180,-4.091,-4.723
0.133,-1.003,0.080,4.086,-3.952,-4.580
0.134,-1.002,0.080,4.008,-3.801,-4.417
0.134,-1.002,0.080,3.932,-3.647,-4.262
0.135,-1.001,0.080,3.886,-3.514,-4.102
0.136,-1.001,0.081,3.793,-3.364,-3.939
0.136,-1.001,0.081,3.777,-3.225,-3.811
0.137,-1.001,0.081,3.733,-3.096,-3.688
0.137,-1.000,0.082,3.671,-2.228,-3.612
0.138,-1.000,0.082,3.594,-2.090,-3.595

0.957,-1.790,0.753,13.444,160.479,-143.427
0.913,-1.871,0.665,22.169,143.203,-186.920
0.689,-1.842,0.688,24.236,122.949,-178.428
0.666,-1.807,0.669,-12.903,52.370,-160.734
0.677,-1.829,0.631,-42.477,-17.262,-153.173
0.662,-1.832,0.615,-50.727,-57.128,-147.533
0.660,-1.800,0.610,-52.351,-63.214,-140.162
0.664,-1.779,0.603,-51.937,-60.558,-135.211
0.671,-1.775,0.596,-49.461,-57.477,-133.173
0.668,-1.767,0.582,-44.755,-55.958,-130.819
0.658,-1.762,0.564,-38.496,-54.907,-125.766
0.651,-1.760,0.547,-30.166,-53.726,-114.865
0.641,-1.754,0.528,-22.179,-54.454,-100.013
0.630,-1.744,0.509,-15.305,-60.071,-83.204
0.619,-1.732,0.490,-9.124,-64.990,-66.857
0.609,-1.718,0.471,-2.733,-67.016,-51.602
0.599,-1.700,0.453,4.606,-66.098,-37.385
0.589,-1.679,0.438,12.121,-63.318,-25.506
0.583,-1.655,0.429,19.564,-59.800,-18.247
0.567,-1.624,0.422,25.785,-56.449,-12.870
0.545,-1.596,0.415,30.119,-53.222,-8.974
0.525,-1.570,0.411,32.914,-50.379,-6.365
0.509,-1.544,0.409,34.313,-47.665,-4.589
0.494,-1.519,0.406,35.213,-45.040,-3.085
0.480,-1.496,0.403,36.117,-42.525,-1.819
0.465,-1.475,0.399,37.225,-40.085,-0.833
0.451,-1.454,0.396,38.167,-37.795,0.075
0.437,-1.432,0.391,38.532,-35.631,0.976
0.423,-1.411,0.388,38.074,-33.540,1.768
0.411,-1.391,0.384,36.368,-31.581,2.153
0.398,-1.373,0.379,33.789,-29.933,2.208
0.386,-1.356,0.374,30.481,-28.604,2.080
0.376,-1.340,0.370,26.718,-27.492,1.942
0.367,-1.325,0.365,22.644,-26.558,1.724
0.358,-1.311,0.361,18.200,-25.805,1.418
0.350,-1.298,0.356,13.675,-25.205,0.963
0.342,-1.287,0.351,9.058,-24.753,0.310
0.336,-1.277,0.345,4.772,-24.239,-0.461
0.330,-1.268,0.341,1.035,-23.561,-1.402
0.325,-1.260,0.336,-2.217,-22.732,-2.440
0.321,-1.252,0.330,-4.982,-21.967,-3.392
0.317,-1.245,0.325,-7.340,-21.261,-4.187
0.312,-1.239,0.320,-9.124,-20.686,-4.914
0.308,-1.234,0.314,-10.332,-20.358,-5.530
0.305,-1.230,0.308,-11.029,-20.319,-5.937
0.302,-1.225,0.303,-11.174,-20.088,-6.185
0.300,-1.220,0.297,-10.867,-19.587,-6.294
0.298,-1.215,0.291,-10.136,-18.923,-6.331
0.295,-1.209,0.285,-9.261,-18.325,-6.384
0.292,-1.203,0.279,-8.398,-17.859,-6.457
0.289,-1.198,0.274,-7.534,-17.532,-6.460
0.286,-1.193,0.270,-6.576,-17.414,-6.477
0.283,-1.187,0.266,-5.494,-17.244,-6.484
0.280,-1.181,0.263,-4.364,-16.838,-6.467
0.277,-1.176,0.260,-2.988,-16.153,-6.336
0.275,-1.170,0.257,-1.521,-15.469,-6.071
0.271,-1.165,0.255,-0.108,-14.801,-5.772
0.268,-1.159,0.252,1.178,-14.171,-5.483
0.265,-1.154,0.250,2.249,-13.593,-5.190
0.262,-1.148,0.248,3.083,-13.072,-4.835
0.258,-1.142,0.247,3.594,-12.593,-4.427
0.254,-1.135,0.245,3.641,-12.167,-4.158
0.251,-1.130,0.243,3.499,-11.773,-3.921
0.248,-1.125,0.241,3.400,-11.486,-3.728
0.244,-1.121,0.239,3.118,-11.109,-3.960
0.241,-1.115,0.237,2.482,-10.869,-4.140
0.239,-1.111,0.235,1.860,-10.462,-4.135
0.236,-1.108,0.233,1.534,-10.121,-4.203
0.233,-1.104,0.231,1.213,-9.989,-4.276
0.231,-1.100,0.230,1.112,-9.219,-4.118
0.231,-1.097,0.230,1.505,-7.991,-3.610
0.230,-1.094,0.228,2.399,-6.831,-2.813
0.227,-1.091,0.226,3.604,-5.742,-1.897
0.224,-1.088,0.224,4.710,-4.790,-1.184
0.221,-1.084,0.223,5.415,-3.877,-0.715
0.218,-1.079,0.221,5.662,-3.350,-0.578
0.214,-1.075,0.220,5.354,-3.116,-0.702
0.211,-1.072,0.219,4.590,-3.176,-1.118
0.208,-1.069,0.218,3.465,-3.118,-1.555
0.207,-1.066,0.216,2.457,-3.043,-1.871
0.204,-1.064,0.215,1.684,-3.083,-2.100
0.202,-1.062,0.214,1.143,-3.211,-2.282
0.200,-1.060,0.213,0.729,-3.373,-2.466
0.198,-1.057,0.212,0.343,-3.497,-2.670
0.197,-1.055,0.211,-0.011,-3.562,-2.855
0.195,-1.053,0.209,-0.279,-3.598,-3.024
0.194,-1.051,0.208,-0.498,-3.616,-3.073
0.192,-1.048,0.208,-0.695,-3.653,-3.028
0.191,-1.046,0.207,-0.787,-3.707,-2.994
0.189,-1.044,0.207,-0.771,-3.759,-2.968
0.189,-1.043,0.206,-0.666,-3.806,-2.929
0.188,-1.041,0.205,-0.481,-3.912,-2.866
0.187,-1.040,0.204,-0.301,-4.084,-2.793
0.185,-1.038,0.203,-0.173,-4.285,-2.734
0.184,-1.035,0.202,-0.156,-4.459,-2.701
0.183,-1.033,0.202,-0.218,-4.687,-2.699
0.183,-1.032,0.201,-0.322,-4.896,-2.742
0.182,-1.031,0.201,-0.401,-5.068,-2.809
0.181,-1.029,0.200,-0.508,-5.216,-2.876
0.181,-1.028,0.199,-0.674,-5.390,-2.944
0.180,-1.026,0.199,-0.908,-5.559,-3.007
0.179,-1.025,0.198,-1.203,-5.676,-3.048
0.179,-1.023,0.198,-1.475,-5.768,-3.041
0.178,-1.021,0.197,-1.678,-5.912,-3.016
0.177,-1.020,0.197,-1.832,-6.069,-2.998
0.177,-1.019,0.196,-1.928,-6.216,-2.967
0.176,-1.019,0.196,-1.939,-6.352,-2.910
0.176,-1.018,0.195,-1.871,-6.489,-2.794
0.175,-1.017,0.194,-1.714,-6.595,-2.671
0.174,-1.015,0.193,-1.600,-6.660,-2.561
0.174,-1.014,0.193,-1.511,-6.673,-2.490
0.173,-1.013,0.192,-1.452,-6.678,-2.433
0.173,-1.012,0.192,-1.405,-6.677,-2.393
0.172,-1.011,0.191,-1.356,-6.650,-2.374
0.171,-1.010,0.191,-1.374,-6.592,-2.365
0.170,-1.009,0.191,-1.412,-6.524,-2.362
0.170,-1.007,0.190,-1.466,-6.434,-2.368
0.169,-1.007,0.190,-1.466,-6.341,-2.400
0.169,-1.006,0.189,-1.343,-6.253,-2.408
0.168,-1.006,0.189,-1.198,-6.160,-2.406
0.168,-1.005,0.189,-1.046,-6.064,-2.377
0.168,-1.004,0.189,-0.869,-5.951,-2.319
0.167,-1.003,0.188,-0.689,-5.813,-2.232
0.167,-1.003,0.188,-0.492,-5.649,-2.156
0.167,-1.002,0.188,-0.268,-5.466,-2.075
0.167,-1.002,0.187,-0.058,-5.270,-2.000
0.167,-1.002,0.187,0.158,-5.076,-1.916
0.166,-1.001,0.187,0.352,-4.885,-1.815
0.166,-1.001,0.187,0.447,-4.709,-1.679
0.166,-1.000,0.187,0.513,-4.532,-1.539
0.165,-0.999,0.187,0.571,-4.344,-1.403
0.165,-0.999,0.187,0.638,-4.144,-1.267
0.165,-0.999,0.186,0.739,-3.932,-1.139
0.165,-0.998,0.186,0.857,-3.708,-0.988
0.165,-0.998,0.186,0.976,-3.480,-0.834
0.165,-0.997,0.186,1.051,-3.262,-0.657
0.165,-0.996,0.186,1.044,-3.050,-0.468
0.165,-0.996,0.186,1.004,-2.839,-0.315
0.165,-0.996,0.186,0.961,-2.625,-0.218
0.165,-0.996,0.186,0.889,-2.433,-0.159
0.165,-0.996,0.186,0.844,-2.240,-0.090
0.165,-0.996,0.186,0.823,-2.052,-0.048
0.164,-0.995,0.185,0.784,-1.856,-0.009
0.164,-0.995,0.185,0.769,-1.664,0.009
0.164,-0.995,0.185,0.756,-1.484,0.036
0.164,-0.994,0.185,0.777,-1.327,0.087
0.164,-0.994,0.185,0.817,-1.191,0.149
0.164,-0.993,0.185,0.853,-1.082,0.185
0.164,-0.993,0.185,0.865,-0.989,0.204
0.164,-0.992,0.185,0.876,-0.892,0.222
0.163,-0.991,0.185,0.846,-0.796,0.249
0.163,-0.990,0.185,0.771,-0.725,0.282
0.163,-0.990,0.186,0.644,-0.657,0.291
0.163,-0.989,0.186,0.522,-0.595,0.263
0.163,-0.989,0.186,0.358,-0.557,0.211
0.163,-0.988,0.186,0.216,-0.517,0.131
0.163,-0.988,0.186,0.068,-0.465,0.092
0.163,-0.987,0.186,-0.059,-0.396,0.055
0.163,-0.987,0.185,-0.140,-0.346,-0.015
0.162,-0.986,0.185,-0.194,-0.337,-0.137
0.162,-0.986,0.185,-0.269,-0.331,-0.287
0.161,-0.985,0.185,-0.383,-0.317,-0.431
0.161,-0.984,0.185,-0.547,-0.306,-0.549
0.161,-0.984,0.184,-0.696,-0.299,-0.663
0.161,-0.984,0.184,-0.830,-0.280,-0.788
0.160,-0.984,0.184,-0.931,-0.265,-0.944
0.160,-0.984,0.184,-1.069,-0.250,-1.107
0.160,-0.983,0.184,-1.228,-0.227,-1.269
0.160,-0.983,0.184,-1.317,-0.193,-1.408
0.160,-0.983,0.184,-1.392,-0.167,-1.529
0.160,-0.983,0.184,-1.466,-0.144,-1.643
0.160,-0.982,0.184,-1.499,-0.129,-1.771
0.160,-0.982,0.184,-1.536,-0.130,-1.886
0.160,-0.982,0.184,-1.596,-0.225,-1.891
0.160,-0.982,0.184,-1.591,-0.358,-1.874
0.160,-0.982,0.184,-1.540,-0.487,-1.826
0.160,-0.982,0.184,-1.514,-0.592,-1.747
0.160,-0.982,0.184,-1.490,-0.696,-1.699
0.160,-0.982,0.185,-1.435,-0.717,-1.685
0.161,-0.983,0.185,-1.353,-0.732,-1.676
0.160,-0.983,0.185,-1.232,-0.795,-1.685
0.160,-0.983,0.185,-1.091,-0.883,-1.710
0.160,-0.983,0.186,-0.930,-1.001,-1.769
0.160,-0.983,0.186,-0.804,-1.137,-1.867
0.160,-0.983,0.187,-0.807,-1.317,-1.946
0.160,-0.983,0.187,-0.856,-1.633,-1.951
0.159,-0.984,0.187,-0.809,-1.961,-1.943
0.160,-0.984,0.187,-0.805,-2.247,-1.848
0.160,-0.985,0.187,-0.960,-2.547,-1.671
0.161,-0.986,0.188,-1.232,-2.836,-1.505
0.161,-0.986,0.188,-1.625,-3.040,-1.358
0.161,-0.986,0.188,-2.068,-3.251,-1.194
0.162,-0.987,0.188,-2.462,-3.429,-1.036
0.161,-0.987,0.187,-2.639,-3.583,-0.941
0.161,-0.987,0.187,-2.648,-3.705,-0.891
0.161,-0.987,0.187,-2.577,-3.824,-0.862
0.160,-0.986,0.188,-2.526,-3.954,-0.856
0.160,-0.986,0.188,-2.434,-4.113,-0.868
0.160,-0.986,0.188,-2.396,-4.278,-0.888

0.285,-1.311,0.273,-4.180,-4.115,6.194
0.286,-1.317,0.277,-5.397,-3.682,13.976
0.286,-1.322,0.280,-6.073,-3.025,22.220
0.284,-1.327,0.281,-6.227,-2.169,30.844
0.282,-1.332,0.280,-5.457,-1.243,39.843
0.281,-1.339,0.277,-3.410,-0.255,49.378
0.279,-1.347,0.273,0.179,0.771,58.944
0.278,-1.354,0.269,4.525,1.854,68.618
0.275,-1.358,0.265,9.465,3.019,78.330
0.272,-1.359,0.263,14.656,4.276,87.775
0.268,-1.358,0.261,19.935,5.651,96.907
0.264,-1.355,0.259,25.148,7.255,105.730
0.261,-1.351,0.257,30.190,9.191,114.406
0.257,-1.345,0.255,35.144,11.485,122.796
0.252,-1.336,0.253,39.987,14.029,130.655
0.246,-1.325,0.250,44.585,16.726,137.954
0.239,-1.312,0.246,49.001,19.656,144.651
0.232,-1.297,0.241,53.235,22.840,150.559
0.225,-1.280,0.236,57.276,27.599,155.701
0.216,-1.260,0.231,61.148,31.381,160.044
0.207,-1.237,0.226,64.866,35.415,163.543
0.196,-1.212,0.220,68.369,39.697,166.115
0.184,-1.186,0.214,71.558,44.230,167.817
0.172,-1.154,0.208,74.241,48.936,168.464
0.158,-1.123,0.200,76.391,53.708,168.229
0.142,-1.091,0.192,77.872,58.341,167.084
0.125,-1.058,0.183,78.477,62.662,165.016
0.107,-1.024,0.172,78.098,66.531,162.134
0.087,-0.989,0.159,76.536,69.603,158.464
0.067,-0.955,0.144,73.516,71.868,154.044
0.046,-0.921,0.129,69.004,73.338,148.942
0.026,-0.888,0.114,63.258,73.914,143.286
0.005,-0.857,0.098,55.779,73.861,136.844
-0.015,-0.828,0.083,46.719,73.382,130.082
-0.035,-0.800,0.068,36.161,72.317,123.106
-0.053,-0.772,0.054,24.648,69.496,116.005
-0.071,-0.746,0.038,11.944,66.694,108.895
-0.086,-0.721,0.022,-1.716,63.051,101.896
-0.100,-0.698,0.006,-15.472,58.602,95.183
-0.112,-0.675,-0.010,-27.822,53.449,88.980
-0.121,-0.653,-0.026,-36.814,47.881,83.494
-0.130,-0.632,-0.042,-42.138,42.103,77.597
-0.137,-0.612,-0.055,-44.098,36.350,69.841
-0.141,-0.593,-0.067,-42.452,30.643,59.510
-0.143,-0.572,-0.077,-38.826,24.679,47.422
-0.142,-0.549,-0.085,-34.136,17.773,33.739
-0.140,-0.523,-0.088,-29.123,8.631,18.998
-0.138,-0.493,-0.090,-24.410,-2.927,3.195
-0.133,-0.461,-0.089,-20.594,-16.860,-13.500
-0.125,-0.431,-0.088,-18.040,-33.879,-31.367
-0.113,-0.404,-0.087,-17.108,-53.889,-50.469
-0.099,-0.379,-0.085,-19.941,-74.211,-72.941
-0.085,-0.355,-0.083,-24.858,-94.046,-97.275
-0.074,-0.323,-0.093,-33.286,-110.311,-121.056
-0.077,-0.290,-0.109,-51.372,-175.155,-198.092
-0.035,-0.300,-0.121,-50.271,-138.434,-206.248
0.055,-0.478,0.003,-78.495,-131.413,-219.755
0.157,-0.663,0.112,-91.517,-126.195,-229.347
0.159,-0.889,0.114,-79.965,-104.987,-230.729
0.033,-1.042,0.124,-66.929,-136.798,-213.824
0.031,-1.014,0.125,-65.015,-181.448,-186.374
0.114,-0.993,0.176,-69.171,-198.772,-162.726
0.145,-0.991,0.150,-87.228,-190.433,-151.941
0.118,-1.002,0.173,-98.793,-182.520,-148.737
0.103,-1.020,0.169,-102.660,-174.866,-147.293
0.118,-1.025,0.176,-105.482,-169.345,-145.297
0.147,-1.037,0.184,-109.763,-163.490,-144.168
0.159,-1.052,0.194,-113.776,-158.695,-143.799
0.155,-1.072,0.197,-118.280,-156.852,-143.071
0.150,-1.100,0.198,-119.703,-156.490,-141.124
0.159,-1.126,0.197,-114.548,-153.566,-136.672
0.183,-1.147,0.192,-104.167,-147.888,-126.995
0.205,-1.161,0.185,-92.155,-141.803,-112.262
0.216,-1.164,0.179,-80.741,-135.980,-97.092
0.215,-1.158,0.173,-70.002,-130.637,-81.609
0.216,-1.154,0.168,-59.898,-124.691,-66.709
0.214,-1.149,0.164,-50.411,-117.796,-53.257
0.207,-1.141,0.163,-41.385,-111.071,-41.864
0.200,-1.129,0.164,-32.694,-105.553,-33.052
0.190,-1.113,0.165,-24.880,-101.153,-25.131
0.179,-1.099,0.169,-18.071,-96.939,-21.186
0.175,-1.081,0.176,-12.342,-92.852,-19.686
0.169,-1.066,0.181,-7.989,-88.987,-18.736
0.162,-1.057,0.186,-4.510,-85.470,-18.360
0.158,-1.049,0.191,-1.431,-82.038,-18.352
0.154,-1.040,0.195,1.030,-78.727,-18.403
0.149,-1.031,0.198,2.765,-75.591,-18.467
0.146,-1.022,0.200,3.860,-72.640,-18.542
0.143,-1.016,0.202,4.512,-69.716,-18.245
0.141,-1.012,0.204,5.178,-66.766,-17.431
0.139,-1.010,0.206,6.065,-63.946,-16.291
0.137,-1.006,0.208,6.895,-61.279,-15.013
0.135,-1.002,0.212,7.360,-58.582,-13.531
0.134,-0.999,0.215,7.478,-55.966,-11.894
0.132,-0.997,0.218,7.347,-53.514,-10.477
0.130,-0.994,0.221,6.740,-51.833,-9.447
0.129,-0.991,0.223,5.540,-49.823,-8.793
0.128,-0.989,0.225,3.649,-48.035,-8.484
0.127,-0.987,0.226,1.127,-46.395,-8.499
0.127,-0.987,0.227,-2.213,-44.872,-8.750
0.128,-0.987,0.227,-5.867,-43.557,-9.091
0.128,-0.988,0.226,-9.676,-42.491,-9.468
0.130,-0.989,0.225,-13.556,-41.610,-9.872
0.131,-0.989,0.224,-17.424,-40.963,-10.409
0.132,-0.989,0.223,-21.460,-40.525,-11.089
0.133,-0.990,0.222,-25.192,-40.214,-11.739
0.135,-0.991,0.220,-28.280,-39.728,-12.254
0.137,-0.993,0.218,-30.382,-39.049,-12.526
0.140,-0.993,0.216,-31.562,-38.101,-12.426
0.142,-0.994,0.214,-31.517,-37.033,-11.969
0.144,-0.995,0.212,-30.566,-35.972,-11.306
0.145,-0.997,0.211,-28.840,-34.898,-10.534
0.147,-0.999,0.209,-26.528,-33.849,-9.861
0.148,-0.999,0.207,-23.916,-32.738,-9.447
0.149,-0.999,0.205,-21.132,-31.406,-9.140
0.151,-0.999,0.204,-18.258,-30.017,-8.736
0.152,-0.999,0.203,-15.340,-28.576,-8.258
0.153,-0.999,0.202,-12.438,-27.121,-7.812
0.154,-0.998,0.202,-9.694,-25.674,-7.468
0.155,-0.998,0.201,-7.220,-24.244,-7.180
0.156,-0.997,0.201,-5.003,-22.803,-6.971
0.157,-0.995,0.202,-3.020,-21.288,-6.810
0.158,-0.994,0.202,-1.330,-19.788,-6.662
0.158,-0.992,0.203,0.092,-18.363,-6.502
0.158,-0.991,0.204,1.204,-17.047,-6.299
0.159,-0.991,0.205,2.111,-15.852,-6.010
0.159,-0.990,0.205,2.872,-14.760,-5.638
0.159,-0.989,0.206,3.547,-13.769,-5.182
0.159,-0.989,0.206,4.111,-12.865,-4.694
0.159,-0.988,0.207,4.550,-12.026,-4.217
0.160,-0.988,0.207,4.822,-11.229,-3.803
0.160,-0.988,0.208,5.013,-10.465,-3.480
0.161,-0.988,0.208,5.131,-9.752,-3.268
0.161,-0.988,0.209,5.193,-9.092,-3.149
0.160,-0.988,0.209,5.140,-8.475,-3.093
0.160,-0.988,0.210,4.944,-7.932,-3.033
0.159,-0.987,0.211,4.718,-7.464,-2.907
0.158,-0.986,0.212,4.415,-7.062,-2.777
0.157,-0.986,0.212,4.055,-6.753,-2.698
0.157,-0.985,0.213,3.666,-6.495,-2.680
0.156,-0.985,0.213,3.208,-6.258,-2.703
0.155,-0.985,0.213,2.704,-6.039,-2.783
0.155,-0.985,0.213,2.140,-5.951,-2.851
0.154,-0.984,0.213,1.484,-6.059,-2.887
0.153,-0.984,0.214,0.799,-6.372,-2.910
0.152,-0.983,0.214,0.075,-6.760,-2.931
0.151,-0.983,0.215,-0.599,-7.160,-2.990
0.151,-0.983,0.215,-1.246,-7.538,-3.066
0.151,-0.982,0.215,-1.855,-7.880,-3.114
0.151,-0.982,0.216,-2.436,-8.161,-3.116
0.151,-0.981,0.216,-3.046,-8.439,-3.082
0.151,-0.980,0.217,-3.653,-8.723,-3.027
0.151,-0.980,0.217,-4.170,-8.995,-2.982
0.151,-0.981,0.217,-4.581,-9.201,-2.921
0.152,-0.980,0.217,-4.860,-9.315,-2.851
0.152,-0.980,0.217,-5.054,-9.354,-2.773
0.153,-0.980,0.216,-5.244,-9.349,-2.711
0.153,-0.979,0.216,-5.381,-9.336,-2.665
0.154,-0.979,0.215,-5.435,-9.293,-2.618
0.154,-0.979,0.215,-5.408,-9.243,-2.557
0.155,-0.979,0.214,-5.306,-9.193,-2.468
0.155,-0.979,0.214,-5.166,-9.145,-2.356
0.156,-0.979,0.214,-4.998,-9.095,-2.239
0.156,-0.979,0.214,-4.843,-9.034,-2.116
0.157,-0.979,0.213,-4.707,-8.951,-1.993
0.157,-0.979,0.213,-4.595,-8.847,-1.824
0.158,-0.978,0.213,-4.544,-8.732,-1.660
0.158,-0.978,0.213,-4.498,-8.636,-1.547
0.158,-0.978,0.213,-4.461,-8.577,-1.455
0.159,-0.978,0.212,-4.398,-8.531,-1.373
0.159,-0.978,0.212,-4.335,-8.479,-1.296
0.159,-0.978,0.212,-4.237,-8.420,-1.239
0.160,-0.978,0.211,-4.111,-8.346,-1.201
0.160,-0.978,0.211,-3.962,-8.244,-1.169
0.161,-0.978,0.211,-3.785,-8.118,-1.138
0.161,-0.978,0.210,-3.600,-7.960,-1.094
0.161,-0.978,0.210,-3.413,-7.790,-1.056
0.161,-0.977,0.210,-3.213,-7.630,-1.021
0.161,-0.977,0.210,-3.012,-7.467,-0.940
0.161,-0.976,0.210,-2.834,-7.273,-0.820
0.161,-0.975,0.210,-2.699,-7.085,-0.714
0.161,-0.975,0.210,-2.580,-6.948,-0.627
0.161,-0.975,0.210,-2.449,-6.836,-0.560
0.161,-0.975,0.210,-2.278,-6.709,-0.521
0.162,-0.975,0.209,-2.075,-6.570,-0.515
0.162,-0.975,0.209,-1.872,-6.429,-0.537
0.162,-0.975,0.209,-1.668,-6.267,-0.573
0.162,-0.975,0.209,-1.431,-6.052,-0.623
0.162,-0.975,0.209,-1.173,-5.813,-0.678
0.162,-0.975,0.209,-0.876,-5.537,-0.745
0.163,-0.976,0.208,-0.563,-5.221,-0.773
0.163,-0.975,0.208,-0.254,-4.858,-0.757
0.163,-0.975,0.208,0.014,-4.461,-0.719
0.163,-0.975,0.208,0.238,-4.078,-0.687
0.163,-0.976,0.208,0.494,-3.712,-0.676
0.163,-0.976,0.207,0.822,-3.357,-0.673
0.163,-0.976,0.207,1.185,-3.005,-0.663
0.163,-0.977,0.207,1.585,-2.667,-0.642
0.163,-0.977,0.206,1.963,-2.359,-0.606

0.314,-1.315,0.232,3.501,-3.593,4.971
0.313,-1.317,0.238,5.259,-4.733,10.710
0.312,-1.316,0.247,6.617,-5.732,17.174
0.311,-1.316,0.255,7.355,-6.385,23.804
0.311,-1.314,0.262,7.143,-6.568,29.916
0.310,-1.311,0.266,5.671,-6.340,34.446
0.306,-1.307,0.266,2.454,-6.504,41.230
0.300,-1.309,0.264,-0.414,-7.687,48.256
0.295,-1.312,0.261,-2.297,-8.801,54.274
0.293,-1.313,0.256,-3.178,-9.351,60.439
0.293,-1.314,0.252,-1.938,-8.956,64.337
0.292,-1.314,0.247,0.374,-8.066,69.585
0.289,-1.318,0.241,3.856,-7.208,75.252
0.284,-1.321,0.237,8.078,-6.344,80.742
0.280,-1.322,0.232,12.651,-5.403,86.945
0.276,-1.321,0.228,17.386,-4.411,93.708
0.273,-1.321,0.224,22.172,-3.210,100.494
0.271,-1.316,0.220,26.814,-1.346,107.066
0.269,-1.309,0.216,31.287,1.103,113.757
0.265,-1.301,0.211,35.586,3.936,120.258
0.260,-1.291,0.206,39.726,7.307,126.231
0.255,-1.281,0.200,43.711,11.048,131.664
0.250,-1.268,0.194,47.546,15.058,136.423
0.244,-1.254,0.188,51.253,19.406,140.655
0.238,-1.237,0.182,54.857,24.313,144.471
0.232,-1.217,0.177,58.345,29.979,147.890
0.225,-1.195,0.171,61.685,36.387,150.962
0.217,-1.170,0.166,64.836,43.582,153.807
0.208,-1.143,0.161,67.707,51.464,156.465
0.197,-1.114,0.155,70.179,60.329,158.838
0.185,-1.084,0.149,72.166,69.623,160.812
0.171,-1.052,0.142,73.577,79.088,162.223
0.156,-1.019,0.132,74.305,88.348,162.909
0.139,-0.985,0.119,73.991,97.075,162.363
0.121,-0.947,0.102,72.729,105.176,161.039
0.102,-0.906,0.078,70.176,112.785,159.040
0.082,-0.861,0.047,66.777,119.814,156.407
0.058,-0.811,0.003,64.652,125.698,152.571
0.032,-0.761,-0.049,64.520,130.447,147.351
0.005,-0.711,-0.103,65.143,133.185,141.206
-0.023,-0.658,-0.157,65.297,134.004,134.142
-0.054,-0.599,-0.207,63.323,133.074,127.464
-0.088,-0.546,-0.246,55.531,131.069,120.747
-0.119,-0.507,-0.275,38.992,128.129,114.213
-0.129,-0.500,-0.287,25.906,121.890,107.316
-0.109,-0.520,-0.289,26.519,113.528,94.157
-0.076,-0.518,-0.274,31.207,101.374,81.606
-0.055,-0.436,-0.258,37.072,88.183,61.398
-0.012,-0.306,-0.244,41.067,77.226,36.749
-0.024,-0.233,-0.251,43.726,33.531,13.514
-0.014,-0.184,-0.262,41.151,-21.166,-11.568
0.010,-0.154,-0.284,28.823,-69.752,-43.430
0.038,-0.130,-0.314,2.634,-112.447,-84.653
0.062,-0.083,-0.328,-37.353,-162.136,-126.670
0.082,-0.014,-0.421,-71.129,-197.438,-181.810
0.131,-0.009,-0.495,-97.900,-224.236,-264.291
0.198,-0.269,-0.350,-499.346,-241.412,-341.408
0.512,-0.677,-0.150,-472.724,-170.122,-132.271
0.543,-1.139,-0.121,-214.375,-140.764,-130.066
0.433,-1.052,-0.085,-150.694,-135.577,-117.696
0.320,-0.924,-0.047,-163.816,-183.349,-121.343
0.335,-0.920,-0.032,-212.321,-197.992,-147.007
0.344,-0.983,-0.017,-237.701,-190.779,-195.753
0.394,-1.070,0.109,-224.784,-62.908,-190.084
0.421,-1.035,0.040,-211.471,-59.459,-201.196
0.335,-1.033,0.045,-197.756,-82.404,-198.389
0.334,-1.062,0.069,-182.159,-86.464,-195.642
0.345,-1.064,0.087,-167.419,-88.106,-190.318
0.338,-1.070,0.086,-154.214,-93.228,-189.039
0.336,-1.067,0.122,-141.574,-90.396,-191.054
0.325,-1.069,0.132,-130.981,-86.651,-188.603
0.314,-1.084,0.129,-120.932,-85.241,-185.528
0.304,-1.087,0.126,-111.584,-86.709,-176.380
0.311,-1.083,0.127,-102.740,-86.891,-163.387
0.311,-1.076,0.117,-94.823,-92.318,-150.182
0.296,-1.069,0.116,-87.930,-99.862,-138.471
0.282,-1.058,0.117,-80.807,-103.072,-128.043
0.273,-1.045,0.129,-74.013,-99.144,-118.373
0.280,-1.030,0.133,-67.216,-95.407,-108.135
0.278,-1.020,0.137,-61.664,-91.802,-97.036
0.272,-1.015,0.145,-56.541,-88.671,-87.421
0.266,-1.010,0.152,-51.735,-85.637,-79.114
0.260,-1.004,0.159,-47.255,-82.503,-72.006
0.254,-0.996,0.164,-43.385,-79.288,-66.723
0.246,-0.987,0.163,-40.456,-76.128,-63.329
0.239,-0.977,0.165,-38.634,-73.065,-61.436
0.233,-0.968,0.165,-37.902,-70.102,-60.552
0.227,-0.965,0.166,-38.127,-67.263,-60.025
0.221,-0.963,0.166,-38.990,-64.741,-59.623
0.213,-0.963,0.167,-40.670,-63.666,-59.337
0.205,-0.963,0.169,-43.138,-64.034,-59.203
0.199,-0.963,0.172,-46.492,-65.163,-59.245
0.197,-0.964,0.175,-50.049,-66.330,-59.345
0.197,-0.967,0.177,-53.259,-66.946,-59.375
0.199,-0.971,0.178,-55.656,-66.673,-59.160
0.201,-0.976,0.178,-56.995,-65.711,-58.434
0.205,-0.982,0.177,-56.701,-63.883,-56.541
0.209,-0.988,0.176,-54.892,-61.392,-53.494
0.215,-0.995,0.175,-51.817,-58.536,-49.362
0.219,-1.001,0.172,-47.848,-54.682,-44.573
0.221,-1.006,0.170,-43.374,-50.756,-39.700
0.220,-1.008,0.168,-38.706,-47.307,-35.343
0.218,-1.008,0.167,-34.291,-44.509,-31.696
0.217,-1.007,0.167,-30.294,-42.377,-28.899
0.215,-1.005,0.168,-26.927,-40.392,-26.818
0.212,-1.002,0.169,-24.327,-38.630,-25.372
0.209,-1.002,0.170,-22.490,-37.144,-24.288
0.207,-1.003,0.170,-21.107,-35.965,-23.394
0.205,-1.003,0.170,-20.134,-35.793,-22.608
0.202,-1.003,0.169,-19.648,-36.219,-21.927
0.201,-1.002,0.169,-19.571,-36.895,-21.370
0.200,-1.002,0.169,-19.693,-37.539,-20.847
0.200,-1.001,0.169,-20.140,-38.003,-20.296
0.200,-1.001,0.168,-20.352,-38.254,-19.701
0.200,-1.001,0.168,-20.496,-38.318,-18.923
0.200,-1.001,0.168,-20.273,-38.172,-17.984
0.200,-1.001,0.167,-19.585,-37.732,-16.819
0.201,-1.000,0.167,-18.551,-36.820,-15.471
0.202,-0.999,0.167,-17.186,-35.541,-14.062
0.203,-0.999,0.166,-15.475,-33.955,-12.759
0.205,-0.999,0.166,-13.282,-32.218,-11.630
0.206,-0.997,0.165,-10.973,-30.440,-10.623
0.206,-0.996,0.165,-8.675,-28.640,-9.773
0.205,-0.994,0.164,-6.507,-26.934,-9.055
0.204,-0.993,0.163,-4.541,-25.303,-8.454
0.203,-0.991,0.162,-2.883,-23.769,-8.018
0.202,-0.990,0.162,-1.411,-22.359,-7.739
0.200,-0.989,0.161,-0.169,-21.075,-7.559
0.199,-0.987,0.161,0.798,-19.881,-7.417
0.198,-0.985,0.161,1.462,-18.771,-7.301
0.197,-0.984,0.162,1.843,-17.679,-7.233
0.196,-0.983,0.162,2.121,-16.609,-7.176
0.196,-0.983,0.162,2.344,-15.601,-7.093
0.196,-0.982,0.162,2.495,-14.609,-7.004
0.195,-0.982,0.162,2.670,-13.622,-6.897
0.194,-0.981,0.163,2.756,-12.667,-6.707
0.193,-0.980,0.163,2.739,-11.777,-6.485
0.192,-0.979,0.163,2.640,-10.962,-6.301
0.191,-0.979,0.163,2.544,-10.214,-6.144
0.190,-0.979,0.162,2.496,-9.543,-5.981
0.189,-0.979,0.162,2.456,-8.951,-5.816
0.188,-0.979,0.162,2.420,-8.428,-5.687
0.187,-0.978,0.163,2.319,-7.934,-5.573
0.186,-0.978,0.163,2.216,-7.417,-5.479
0.185,-0.977,0.163,2.094,-6.942,-5.436
0.184,-0.976,0.164,1.935,-6.512,-5.447
0.182,-0.976,0.164,1.730,-6.156,-5.479
0.181,-0.976,0.165,1.440,-5.912,-5.503
0.180,-0.975,0.166,1.035,-5.770,-5.525
0.179,-0.975,0.167,0.521,-5.579,-5.574
0.179,-0.975,0.167,-0.057,-5.366,-5.627
0.179,-0.975,0.168,-0.639,-5.195,-5.667
0.178,-0.976,0.169,-1.199,-5.162,-5.654
0.178,-0.976,0.169,-1.711,-5.293,-5.591
0.177,-0.976,0.169,-2.201,-5.497,-5.525
0.177,-0.977,0.170,-2.691,-5.793,-5.441
0.176,-0.977,0.170,-3.149,-6.175,-5.325
0.176,-0.977,0.170,-3.555,-6.474,-5.176
0.176,-0.977,0.171,-3.910,-6.683,-5.010
0.176,-0.977,0.171,-4.205,-6.825,-4.859
0.176,-0.978,0.171,-4.356,-6.912,-4.733
0.176,-0.979,0.171,-4.381,-7.013,-4.611
0.177,-0.980,0.171,-4.311,-7.108,-4.452
0.177,-0.980,0.171,-4.215,-7.139,-4.275
0.177,-0.980,0.172,-4.163,-7.080,-4.115
0.177,-0.980,0.172,-4.103,-6.988,-3.999
0.177,-0.981,0.172,-4.018,-6.908,-3.899
0.178,-0.982,0.172,-3.883,-6.852,-3.819
0.178,-0.983,0.171,-3.768,-6.809,-3.736
0.178,-0.983,0.171,-3.651,-6.811,-3.643
0.178,-0.983,0.171,-3.533,-6.840,-3.547
0.178,-0.983,0.171,-3.418,-6.880,-3.421
0.179,-0.983,0.171,-3.291,-6.895,-3.294
0.179,-0.982,0.172,-3.139,-6.891,-3.187
0.179,-0.982,0.172,-2.982,-6.898,-3.111
0.179,-0.982,0.172,-2.822,-6.918,-3.053
0.179,-0.982,0.172,-2.694,-6.944,-2.991
0.180,-0.981,0.172,-2.585,-6.954,-2.922
0.180,-0.981,0.173,-2.519,-6.967,-2.852
0.179,-0.980,0.173,-2.509,-6.971,-2.801
0.179,-0.980,0.173,-2.530,-6.964,-2.769
0.180,-0.979,0.173,-2.540,-6.941,-2.764
0.180,-0.979,0.172,-2.523,-6.903,-2.765
0.180,-0.979,0.172,-2.477,-6.871,-2.760
0.180,-0.978,0.172,-2.420,-6.836,-2.731
0.180,-0.977,0.172,-2.376,-6.794,-2.692
0.180,-0.977,0.172,-2.341,-6.753,-2.683
0.181,-0.977,0.172,-2.278,-6.706,-2.682
0.181,-0.977,0.172,-2.180,-6.640,-2.688
0.182,-0.977,0.172,-2.059,-6.548,-2.704
0.182,-0.976,0.171,-1.882,-6.426,-2.730
0.182,-0.976,0.171,-1.703,-6.270,-2.754
0.183,-0.976,0.171,-1.507,-6.065,-2.791
0.183,-0.976,0.171,-1.286,-5.822,-2.843
0.184,-0.976,0.171,-1.052,-5.554,-2.899
0.184,-0.976,0.171,-0.814,-5.268,-2.960
0.185,-0.976,0.171,-0.589,-4.973,-3.000
0.185,-0.976,0.171,-0.380,-4.657,-3.018
0.186,-0.976,0.171,-0.185,-4.347,-3.028

0.354,-1.248,0.263,-0.486,-6.231,0.444
0.358,-1.254,0.266,-0.501,-7.583,3.799
0.362,-1.258,0.267,-0.230,-8.608,7.582
0.363,-1.262,0.268,0.526,-9.539,11.620
0.363,-1.266,0.268,1.717,-10.481,15.995
0.362,-1.270,0.266,3.232,-11.490,20.700
0.362,-1.273,0.264,5.299,-12.592,25.479
0.361,-1.278,0.261,7.767,-13.448,29.944
0.361,-1.281,0.259,10.487,-13.531,33.228
0.360,-1.280,0.257,13.173,-13.220,35.580
0.358,-1.278,0.255,15.669,-12.958,38.174
0.355,-1.278,0.252,18.095,-13.192,41.356
0.350,-1.279,0.249,20.750,-13.650,45.678
0.348,-1.282,0.247,23.658,-13.085,50.353
0.349,-1.283,0.245,26.742,-11.519,54.455
0.349,-1.280,0.245,29.764,-9.084,58.237
0.345,-1.278,0.243,32.584,-7.008,62.237
0.340,-1.279,0.242,35.181,-5.396,66.369
0.336,-1.282,0.239,37.677,-3.838,70.542
0.332,-1.285,0.236,40.231,-2.177,74.883
0.329,-1.288,0.232,42.772,-0.386,79.381
0.325,-1.291,0.227,45.322,1.677,84.288
0.321,-1.294,0.221,47.890,4.122,89.694
0.316,-1.294,0.214,50.464,7.625,95.687
0.312,-1.291,0.208,53.029,12.177,102.233
0.306,-1.285,0.201,55.546,17.929,109.322
0.300,-1.275,0.195,57.995,25.003,116.843
0.294,-1.262,0.188,60.382,33.592,124.857
0.288,-1.243,0.180,63.183,43.697,132.579
0.282,-1.221,0.172,66.262,54.840,139.791
0.275,-1.196,0.164,69.363,66.477,146.539
0.268,-1.168,0.155,72.390,78.253,152.851
0.261,-1.137,0.146,75.125,90.491,158.683
0.251,-1.103,0.136,77.436,102.763,163.883
0.241,-1.068,0.125,79.311,115.124,168.249
0.229,-1.031,0.112,81.053,127.792,171.687
0.216,-0.992,0.095,82.449,141.011,173.954
0.201,-0.949,0.073,83.391,154.585,175.313
0.183,-0.903,0.046,83.597,167.760,175.955
0.161,-0.853,0.014,82.808,179.233,175.808
0.135,-0.802,-0.022,81.289,187.958,174.395
0.105,-0.751,-0.064,79.627,193.965,171.210
0.074,-0.702,-0.106,77.762,197.393,166.252
0.042,-0.658,-0.144,75.485,197.906,159.274
0.012,-0.620,-0.176,72.469,196.896,152.064
-0.018,-0.585,-0.202,67.307,195.155,144.934
-0.050,-0.553,-0.221,59.171,192.644,138.061
-0.071,-0.530,-0.233,49.223,188.622,131.761
-0.079,-0.520,-0.240,42.742,184.478,126.151
-0.076,-0.514,-0.247,41.171,179.699,113.921
-0.064,-0.483,-0.258,42.385,170.488,98.243
-0.058,-0.428,-0.273,42.848,155.948,79.000
-0.058,-0.365,-0.293,38.988,132.262,54.709
-0.056,-0.308,-0.323,27.154,103.721,23.081
-0.049,-0.265,-0.357,7.458,71.579,-17.044
-0.037,-0.235,-0.390,-14.567,36.256,-67.443
-0.022,-0.211,-0.416,-33.710,-2.069,-119.635
-0.005,-0.183,-0.426,-50.970,-47.476,-169.254
0.022,-0.143,-0.441,-65.053,-89.708,-213.890
0.065,-0.121,-0.474,-69.709,-121.328,-262.858
0.123,-0.132,-0.487,-66.709,-148.134,-309.683
0.175,-0.143,-0.479,-60.023,-175.264,-344.382
0.219,-0.151,-0.458,-54.618,-204.106,-366.161
0.285,-0.527,-0.309,-135.415,-226.207,-264.282
0.445,-0.809,-0.021,-85.541,-216.240,-393.626
0.177,-0.979,0.170,57.184,-119.961,-368.715
0.091,-1.065,0.133,58.698,-302.474,-194.521
0.391,-1.041,0.286,-30.677,-291.270,-191.732
0.584,-1.077,0.297,-33.200,-275.884,-278.833
0.511,-1.029,0.285,-80.693,-236.412,-276.751
0.349,-1.069,0.214,-152.301,-246.487,-264.564
0.323,-1.093,0.233,-191.870,-257.497,-258.916
0.384,-1.108,0.239,-196.734,-256.563,-253.504
0.503,-1.138,0.233,-190.350,-247.448,-250.518
0.530,-1.151,0.258,-177.398,-238.180,-249.179
0.481,-1.168,0.232,-166.741,-232.176,-244.266
0.472,-1.209,0.221,-156.357,-226.167,-236.620
0.497,-1.239,0.212,-145.595,-218.394,-223.844
0.526,-1.248,0.193,-136.184,-209.867,-207.997
0.539,-1.247,0.181,-128.382,-202.081,-193.791
0.531,-1.241,0.169,-121.427,-195.239,-180.732
0.521,-1.235,0.158,-113.981,-188.580,-168.721
0.512,-1.228,0.150,-106.401,-182.106,-154.460
0.501,-1.221,0.147,-99.212,-175.929,-139.729
0.491,-1.213,0.153,-92.756,-170.305,-125.269
0.481,-1.203,0.160,-86.147,-165.027,-112.127
0.468,-1.191,0.168,-79.255,-159.803,-100.599
0.452,-1.178,0.177,-72.164,-154.352,-90.150
0.435,-1.164,0.187,-65.388,-148.857,-80.558
0.420,-1.150,0.197,-59.064,-143.542,-72.075
0.408,-1.137,0.208,-53.176,-138.676,-64.961
0.399,-1.124,0.217,-47.633,-133.411,-59.508
0.391,-1.111,0.224,-42.476,-126.687,-55.296
0.381,-1.099,0.229,-37.863,-119.334,-52.070
0.371,-1.087,0.232,-34.119,-112.736,-49.663
0.360,-1.075,0.233,-31.689,-108.468,-47.656
0.346,-1.066,0.232,-31.467,-104.655,-44.784
0.331,-1.063,0.232,-32.289,-102.086,-40.879
0.320,-1.062,0.232,-32.993,-99.869,-36.916
0.317,-1.059,0.234,-33.414,-96.812,-34.097
0.315,-1.052,0.234,-34.108,-93.611,-33.245
0.308,-1.045,0.233,-36.670,-90.890,-33.202
0.298,-1.040,0.231,-40.004,-89.151,-33.575
0.290,-1.038,0.228,-43.610,-89.114,-33.914
0.285,-1.037,0.226,-47.031,-89.795,-33.676
0.284,-1.039,0.222,-48.376,-90.207,-32.447
0.286,-1.041,0.220,-47.785,-88.970,-30.250
0.291,-1.044,0.217,-45.405,-85.786,-27.776
0.300,-1.046,0.214,-41.582,-80.236,-25.332
0.305,-1.046,0.211,-37.183,-70.993,-23.238
0.306,-1.046,0.209,-32.464,-60.032,-21.529
0.304,-1.045,0.207,-27.830,-49.878,-20.000
0.300,-1.043,0.204,-23.454,-43.181,-18.487
0.295,-1.040,0.201,-19.373,-38.815,-17.121
0.289,-1.036,0.198,-15.703,-36.196,-16.091
0.284,-1.033,0.196,-12.370,-34.492,-15.347
0.280,-1.030,0.195,-9.457,-33.258,-14.748
0.277,-1.026,0.195,-7.037,-31.914,-14.219
0.274,-1.021,0.196,-5.221,-30.817,-13.771
0.271,-1.018,0.199,-4.090,-29.583,-13.619
0.270,-1.015,0.200,-3.354,-28.427,-13.659
0.267,-1.012,0.200,-3.061,-28.861,-13.710
0.262,-1.010,0.200,-3.317,-30.765,-13.738
0.259,-1.008,0.202,-4.000,-32.924,-13.810
0.259,-1.005,0.204,-5.106,-34.322,-13.922
0.261,-1.002,0.205,-6.201,-34.814,-13.971
0.264,-1.001,0.206,-7.125,-34.128,-13.775
0.266,-1.001,0.206,-7.237,-32.996,-13.480
0.268,-1.000,0.205,-6.644,-31.800,-12.741
0.269,-0.999,0.206,-5.520,-30.253,-11.793
0.270,-0.996,0.207,-4.138,-26.509,-10.811
0.269,-0.993,0.208,-2.682,-23.537,-9.769
0.266,-0.992,0.208,-1.213,-21.312,-8.915
0.263,-0.991,0.208,-0.012,-19.725,-8.447
0.260,-0.989,0.209,0.806,-18.438,-8.227
0.258,-0.988,0.209,1.239,-17.286,-8.197
0.255,-0.986,0.208,1.332,-16.500,-8.293
0.252,-0.985,0.208,1.117,-15.985,-8.472
0.250,-0.984,0.208,0.788,-15.492,-8.696
0.249,-0.984,0.209,0.496,-14.950,-8.924
0.248,-0.984,0.209,0.356,-14.402,-9.102
0.247,-0.984,0.210,0.383,-13.866,-9.185
0.247,-0.985,0.211,0.594,-13.257,-9.137
0.246,-0.984,0.212,0.951,-12.564,-8.940
0.246,-0.983,0.214,1.351,-11.780,-8.669
0.245,-0.982,0.214,1.828,-11.017,-8.339
0.243,-0.982,0.215,2.330,-10.339,-7.998
0.241,-0.982,0.217,2.846,-9.680,-7.655
0.240,-0.981,0.218,3.288,-9.022,-7.291
0.238,-0.979,0.219,3.659,-8.439,-6.934
0.236,-0.978,0.220,3.937,-7.931,-6.662
0.233,-0.977,0.221,4.123,-7.476,-6.464
0.231,-0.976,0.222,4.217,-7.057,-6.357
0.230,-0.975,0.224,4.203,-6.588,-6.351
0.229,-0.974,0.226,4.130,-6.114,-6.424
0.228,-0.974,0.227,4.026,-5.643,-6.548
0.226,-0.973,0.228,3.938,-5.222,-6.679
0.225,-0.973,0.229,3.851,-4.872,-6.811
0.224,-0.972,0.230,3.737,-4.639,-6.918
0.223,-0.971,0.232,3.540,-4.532,-6.937
0.222,-0.969,0.233,3.239,-4.548,-6.861
0.221,-0.968,0.235,2.845,-4.599,-6.797
0.220,-0.968,0.236,2.392,-4.704,-6.762
0.219,-0.968,0.237,1.849,-4.973,-6.751
0.218,-0.968,0.238,1.235,-5.668,-6.709
0.218,-0.968,0.238,0.595,-6.662,-6.595
0.217,-0.968,0.238,-0.016,-7.733,-6.433
0.217,-0.967,0.239,-0.654,-8.796,-6.283
0.217,-0.966,0.239,-1.289,-9.850,-6.153
0.217,-0.966,0.239,-1.870,-10.800,-6.074
0.217,-0.966,0.240,-2.382,-11.590,-6.024
0.218,-0.966,0.240,-2.747,-12.220,-5.973
0.218,-0.966,0.240,-3.022,-12.719,-5.915
0.219,-0.966,0.241,-3.235,-13.078,-5.821
0.220,-0.966,0.241,-3.378,-13.249,-5.667
0.220,-0.966,0.242,-3.478,-13.287,-5.470
0.221,-0.966,0.242,-3.475,-13.252,-5.259
0.221,-0.966,0.242,-3.377,-13.166,-5.041
0.222,-0.967,0.243,-3.194,-13.032,-4.793
0.223,-0.967,0.243,-2.935,-12.807,-4.506
0.224,-0.967,0.243,-2.658,-12.524,-4.198
0.224,-0.967,0.244,-2.385,-12.206,-3.892
0.224,-0.967,0.244,-2.112,-11.875,-3.603
0.224,-0.966,0.244,-1.848,-11.539,-3.338
0.224,-0.965,0.245,-1.588,-11.208,-3.117
0.224,-0.965,0.245,-1.340,-10.903,-2.932
0.224,-0.964,0.246,-1.122,-10.607,-2.780
0.224,-0.964,0.246,-0.965,-10.326,-2.651
0.224,-0.963,0.247,-0.859,-10.050,-2.542
0.225,-0.963,0.247,-0.786,-9.740,-2.460
0.225,-0.962,0.248,-0.749,-9.406,-2.382
0.225,-0.962,0.248,-0.741,-9.052,-2.305
0.226,-0.961,0.248,-0.748,-8.696,-2.231
0.226,-0.961,0.249,-0.740,-8.330,-2.183
0.226,-0.961,0.248,-0.688,-7.977,-2.125
0.227,-0.961,0.248,-0.604,-7.631,-2.056
0.227,-0.961,0.248,-0.469,-7.287,-1.974
0.227,-0.961,0.248,-0.363,-6.947,-1.896
0.227,-0.961,0.249,-0.283,-6.643,-1.819

0.324,-1.278,0.253,-0.495,-8.323,5.099
0.324,-1.277,0.257,-0.375,-9.699,12.043
0.324,-1.276,0.261,-0.198,-10.924,19.358
0.325,-1.281,0.263,0.059,-12.123,27.058
0.328,-1.289,0.264,0.478,-13.203,35.553
0.332,-1.301,0.263,1.259,-13.844,43.344
0.337,-1.313,0.259,2.326,-13.886,52.696
0.341,-1.326,0.254,4.010,-13.550,63.276
0.343,-1.338,0.250,6.509,-12.956,74.591
0.344,-1.345,0.247,9.303,-12.172,86.346
0.344,-1.350,0.244,12.235,-11.206,98.107
0.343,-1.354,0.242,15.182,-9.994,109.998
0.340,-1.356,0.239,18.078,-8.318,122.150
0.336,-1.356,0.236,20.850,-6.197,134.636
0.331,-1.353,0.232,24.101,-3.470,147.353
0.326,-1.346,0.227,28.090,-0.127,160.005
0.320,-1.333,0.222,33.099,3.798,172.420
0.313,-1.317,0.217,38.558,8.553,184.211
0.306,-1.296,0.211,44.372,14.630,195.164
0.299,-1.270,0.203,50.280,22.441,205.035
0.290,-1.237,0.190,55.922,32.455,213.853
0.279,-1.200,0.178,60.909,45.783,221.606
0.265,-1.158,0.164,65.146,60.896,228.180
0.251,-1.113,0.147,68.534,77.166,233.459
0.233,-1.065,0.129,70.951,93.611,237.264
0.213,-1.014,0.110,72.163,108.501,239.020
0.190,-0.961,0.090,73.223,120.118,238.807
0.164,-0.908,0.071,73.470,128.262,236.418
0.137,-0.855,0.051,73.177,133.271,231.907
0.111,-0.806,0.032,72.103,135.700,225.512
0.086,-0.761,0.012,70.187,136.348,217.733
0.066,-0.720,-0.007,67.770,136.194,209.125
0.047,-0.681,-0.026,64.972,135.455,200.171
0.030,-0.644,-0.046,62.222,134.317,191.292
0.014,-0.607,-0.064,59.999,133.026,183.121
-0.004,-0.569,-0.082,58.298,131.400,176.223
-0.022,-0.531,-0.099,56.850,129.463,168.426
-0.039,-0.492,-0.117,55.415,127.166,157.063
-0.054,-0.455,-0.136,53.889,124.745,141.795
-0.065,-0.420,-0.157,51.923,122.212,122.001
-0.073,-0.387,-0.178,49.001,118.386,95.775
-0.078,-0.356,-0.200,45.207,112.686,65.378
-0.080,-0.326,-0.220,40.286,104.212,31.215
-0.079,-0.298,-0.237,34.105,90.943,-5.763
-0.073,-0.272,-0.249,26.856,74.293,-44.747
-0.063,-0.249,-0.259,16.619,54.867,-88.688
-0.050,-0.228,-0.265,7.663,33.173,-130.376
-0.034,-0.209,-0.269,-1.066,7.241,-170.890
-0.014,-0.191,-0.269,-9.854,-17.176,-210.857
0.008,-0.172,-0.267,-18.435,-41.255,-249.120
0.032,-0.155,-0.270,-25.388,-63.352,-284.579
0.060,-0.142,-0.274,-29.928,-83.164,-318.165
0.092,-0.134,-0.280,-31.368,-100.346,-348.498
0.125,-0.137,-0.324,-27.697,-36.777,-338.165
0.244,-0.511,-0.152,-25.362,-7.822,-329.177
0.290,-0.657,-0.060,-24.189,-55.267,-424.794
0.022,-0.872,-0.053,-12.141,-130.817,-392.275
0.063,-1.020,0.077,8.154,-151.439,-379.851
0.218,-0.997,0.142,41.033,-169.016,-369.703
0.406,-0.990,0.128,-1.564,-142.292,-367.900
0.462,-1.010,0.175,-12.589,-136.593,-359.525
0.343,-1.046,0.152,-32.763,-132.615,-350.525
0.205,-1.075,0.127,-54.750,-144.731,-342.329
0.207,-1.093,0.149,-76.120,-142.307,-334.223
0.294,-1.111,0.171,-76.684,-137.543,-325.544
0.333,-1.128,0.176,-75.540,-133.175,-317.297
0.336,-1.147,0.184,-71.604,-129.654,-309.851
0.331,-1.154,0.191,-66.835,-126.142,-301.672
0.312,-1.154,0.191,-63.744,-124.432,-293.999
0.299,-1.165,0.193,-61.494,-123.934,-286.632
0.312,-1.188,0.191,-57.137,-123.594,-278.210
0.345,-1.213,0.183,-51.932,-120.608,-259.017
0.378,-1.230,0.177,-46.724,-116.684,-238.035
0.387,-1.225,0.172,-41.128,-112.777,-220.717
0.385,-1.213,0.168,-36.880,-109.063,-207.209
0.374,-1.201,0.163,-32.461,-105.544,-194.220
0.360,-1.191,0.161,-28.206,-101.585,-181.928
0.352,-1.183,0.161,-24.159,-98.128,-168.966
0.344,-1.174,0.163,-20.376,-94.840,-156.884
0.335,-1.162,0.168,-17.061,-91.652,-146.934
0.326,-1.149,0.173,-14.520,-88.769,-138.310
0.318,-1.140,0.181,-12.562,-86.041,-130.828
0.311,-1.132,0.189,-10.951,-83.416,-124.080
0.304,-1.125,0.196,-9.499,-80.801,-117.999
0.300,-1.116,0.203,-8.241,-78.093,-112.766
0.295,-1.105,0.209,-7.480,-75.403,-108.381
0.289,-1.094,0.212,-7.597,-73.043,-104.586
0.280,-1.084,0.213,-8.753,-71.657,-101.037
0.271,-1.076,0.214,-10.624,-71.258,-97.468
0.265,-1.071,0.215,-12.582,-70.949,-93.830
0.262,-1.066,0.215,-14.107,-69.863,-90.170
0.263,-1.061,0.214,-15.145,-68.048,-86.490
0.264,-1.057,0.213,-15.743,-66.205,-82.731
0.264,-1.054,0.212,-15.785,-64.278,-78.756
0.266,-1.053,0.210,-15.360,-62.132,-74.670
0.268,-1.052,0.209,-14.463,-59.610,-70.528
0.272,-1.051,0.208,-13.181,-55.192,-66.251
0.276,-1.050,0.206,-11.542,-50.076,-61.766
0.277,-1.049,0.204,-9.604,-45.247,-57.427
0.278,-1.047,0.202,-7.656,-41.047,-53.603
0.278,-1.044,0.200,-5.846,-37.613,-50.283
0.277,-1.040,0.198,-4.304,-34.891,-47.278
0.276,-1.037,0.196,-3.057,-32.925,-44.597
0.275,-1.034,0.194,-2.131,-31.449,-42.263
0.275,-1.031,0.192,-1.369,-30.159,-40.151
0.275,-1.029,0.189,-0.739,-29.090,-38.108
0.276,-1.028,0.187,-0.149,-28.111,-36.184
0.276,-1.026,0.186,0.383,-27.140,-34.617
0.276,-1.022,0.184,0.682,-26.388,-33.277
0.275,-1.018,0.184,0.641,-26.159,-32.104
0.273,-1.015,0.184,0.334,-27.493,-31.114
0.272,-1.012,0.184,-0.248,-28.743,-30.254
0.271,-1.010,0.184,-1.006,-30.623,-29.472
0.270,-1.007,0.185,-1.948,-32.871,-28.794
0.269,-1.003,0.186,-2.965,-35.192,-28.121
0.269,-1.000,0.187,-3.969,-37.059,-27.437
0.270,-0.997,0.188,-4.770,-38.194,-26.743
0.272,-0.995,0.189,-5.261,-38.416,-25.973
0.275,-0.994,0.189,-5.158,-37.721,-25.094
0.278,-0.993,0.190,-4.630,-36.425,-24.069
0.281,-0.993,0.189,-3.738,-34.685,-22.942
0.283,-0.992,0.189,-2.587,-32.085,-21.763
0.284,-0.991,0.189,-1.290,-28.929,-20.567
0.285,-0.990,0.189,0.044,-25.811,-19.441
0.283,-0.989,0.190,1.252,-23.046,-18.450
0.282,-0.987,0.190,2.230,-20.785,-17.611
0.279,-0.985,0.191,2.935,-18.978,-16.906
0.277,-0.983,0.191,3.410,-17.584,-16.348
0.275,-0.982,0.192,3.610,-16.513,-15.943
0.274,-0.980,0.192,3.624,-15.581,-15.580
0.272,-0.978,0.193,3.441,-14.761,-15.238
0.270,-0.977,0.194,3.154,-14.073,-14.933
0.270,-0.977,0.194,2.880,-13.423,-14.631
0.270,-0.977,0.194,2.742,-12.735,-14.302
0.270,-0.978,0.195,2.819,-11.986,-13.864
0.270,-0.978,0.195,3.048,-11.181,-13.317
0.270,-0.978,0.195,3.385,-10.329,-12.674
0.270,-0.978,0.196,3.863,-9.446,-11.939
0.270,-0.978,0.197,4.439,-8.542,-11.157
0.270,-0.978,0.198,5.100,-7.643,-10.375
0.269,-0.978,0.199,5.851,-6.812,-9.651
0.267,-0.978,0.200,6.604,-6.064,-9.001
0.266,-0.976,0.201,7.266,-5.418,-8.426
0.264,-0.974,0.202,7.764,-4.952,-7.952
0.263,-0.972,0.203,8.064,-4.606,-7.623
0.261,-0.970,0.205,8.173,-4.390,-7.480
0.260,-0.969,0.206,8.094,-4.321,-7.425
0.258,-0.968,0.208,7.885,-4.232,-7.398
0.258,-0.967,0.210,7.621,-4.176,-7.352
0.258,-0.966,0.211,7.302,-4.367,-7.246
0.256,-0.965,0.213,6.853,-4.658,-7.113
0.256,-0.964,0.214,6.248,-4.964,-7.005
0.255,-0.963,0.216,5.506,-5.331,-6.934
0.255,-0.962,0.217,4.673,-5.795,-6.899
0.255,-0.961,0.218,3.778,-6.321,-6.894
0.254,-0.960,0.218,2.822,-6.880,-6.881
0.254,-0.959,0.219,1.786,-7.486,-6.874
0.254,-0.958,0.220,0.778,-8.123,-6.868
0.254,-0.958,0.220,-0.157,-8.836,-6.850
0.254,-0.958,0.221,-1.027,-9.501,-6.807
0.255,-0.958,0.221,-1.764,-10.028,-6.753
0.256,-0.957,0.221,-2.358,-10.495,-6.675
0.256,-0.958,0.221,-2.781,-10.892,-6.586
0.257,-0.958,0.222,-3.098,-11.249,-6.464
0.258,-0.958,0.222,-3.335,-11.489,-6.308
0.258,-0.959,0.222,-3.476,-11.640,-6.131
0.259,-0.959,0.222,-3.540,-11.728,-5.915
0.259,-0.959,0.222,-3.533,-11.752,-5.683
0.260,-0.959,0.222,-3.498,-11.755,-5.446
0.260,-0.959,0.223,-3.432,-11.720,-5.225
0.260,-0.959,0.223,-3.366,-11.676,-5.021
0.260,-0.959,0.223,-3.254,-11.633,-4.837
0.261,-0.959,0.223,-3.117,-11.592,-4.662
0.261,-0.959,0.223,-2.987,-11.542,-4.494
0.261,-0.958,0.224,-2.853,-11.487,-4.365
0.261,-0.958,0.224,-2.711,-11.419,-4.298
0.261,-0.957,0.223,-2.521,-11.332,-4.256
0.261,-0.957,0.223,-2.331,-11.228,-4.221
0.261,-0.957,0.223,-2.107,-11.091,-4.167
0.261,-0.956,0.223,-1.834,-10.929,-4.118
0.262,-0.956,0.222,-1.537,-10.775,-4.080
0.262,-0.955,0.222,-1.238,-10.629,-4.052
0.263,-0.955,0.222,-0.940,-10.483,-4.029
0.263,-0.955,0.221,-0.652,-10.326,-4.019
0.264,-0.955,0.221,-0.396,-10.172,-4.006
0.264,-0.954,0.221,-0.186,-10.032,-3.958
0.265,-0.954,0.221,-0.028,-9.924,-3.909
0.266,-0.955,0.221,0.118,-9.817,-3.868
0.267,-0.955,0.220,0.228,-9.667,-3.844
0.269,-0.955,0.220,0.235,-9.360,-3.876
0.271,-0.956,0.219,0.115,-8.907,-3.976
0.273,-0.956,0.218,-0.165,-8.468,-4.071
0.274,-0.956,0.218,-0.552,-8.100,-4.129
0.274,-0.956,0.217,-0.980,-7.812,-4.123
0.274,-0.956,0.217,-1.392,-7.639,-4.055
0.274,-0.955,0.217,-1.743,-7.536,-3.954
0.275,-0.955,0.218,-1.997,-7.457,-3.840
0.275,-0.955,0.219,-2.198,-7.349,-3.727
0.275,-0.955,0.220,-2.365,-7.185,-3.616

0.402,-1.236,0.223,-6.211,-7.188,1.279
0.403,-1.243,0.220,-9.556,-7.167,6.426
0.404,-1.250,0.216,-12.079,-7.213,11.878
0.405,-1.257,0.212,-13.845,-7.321,17.693
0.405,-1.264,0.208,-14.962,-7.506,23.983
0.404,-1.271,0.204,-15.046,-7.718,30.979
0.404,-1.278,0.200,-14.373,-7.860,38.304
0.403,-1.283,0.197,-13.077,-7.914,46.200
0.401,-1.285,0.196,-11.363,-7.827,54.583
0.397,-1.287,0.195,-9.468,-7.606,63.304
0.394,-1.287,0.194,-7.445,-7.238,72.285
0.390,-1.286,0.192,-5.190,-6.778,81.462
0.386,-1.287,0.189,-2.866,-6.244,90.451
0.383,-1.290,0.184,-0.486,-5.639,99.453
0.375,-1.292,0.179,2.016,-4.976,108.357
0.370,-1.294,0.174,4.557,-4.223,117.095
0.364,-1.294,0.170,7.089,-3.355,125.681
0.357,-1.293,0.166,9.585,-2.372,134.063
0.350,-1.291,0.163,12.385,-1.216,142.442
0.343,-1.286,0.160,15.853,0.296,150.647
0.334,-1.278,0.158,20.121,2.294,158.661
0.324,-1.268,0.155,25.188,4.859,166.320
0.314,-1.256,0.152,30.702,8.253,173.612
0.304,-1.242,0.149,36.772,12.298,180.533
0.293,-1.225,0.145,43.260,16.895,186.822
0.282,-1.205,0.142,49.641,22.015,192.358
0.270,-1.184,0.138,55.424,27.546,197.084
0.257,-1.156,0.134,60.220,33.437,200.768
0.244,-1.128,0.128,64.161,39.693,203.372
0.229,-1.097,0.122,67.226,46.184,204.854
0.212,-1.064,0.116,69.461,52.707,205.221
0.195,-1.028,0.110,70.957,59.005,204.570
0.176,-0.991,0.101,71.819,64.698,202.867
0.156,-0.953,0.092,72.401,69.547,200.055
0.136,-0.915,0.082,72.590,73.382,196.123
0.115,-0.878,0.070,72.293,76.162,191.206
0.094,-0.841,0.058,71.490,78.002,185.532
0.073,-0.804,0.044,69.980,79.013,179.013
0.054,-0.767,0.028,68.180,79.373,172.219
0.034,-0.732,0.010,66.071,79.184,165.353
0.015,-0.697,-0.008,63.704,78.583,158.648
-0.002,-0.665,-0.028,61.189,77.545,152.350
-0.018,-0.634,-0.048,58.497,76.258,146.708
-0.032,-0.605,-0.067,55.633,74.463,141.214
-0.045,-0.578,-0.085,52.770,71.847,132.738
-0.056,-0.552,-0.100,50.452,68.399,121.943
-0.066,-0.526,-0.113,48.593,64.092,108.888
-0.074,-0.500,-0.123,47.107,58.562,93.936
-0.079,-0.472,-0.132,45.812,52.190,77.280
-0.084,-0.444,-0.139,44.526,45.145,59.203
-0.086,-0.418,-0.147,43.278,37.417,38.379
-0.086,-0.393,-0.156,41.951,29.066,15.893
-0.083,-0.371,-0.166,40.531,19.915,-7.674
-0.078,-0.349,-0.176,38.897,9.175,-31.926
-0.072,-0.328,-0.186,37.082,-2.781,-56.289
-0.064,-0.308,-0.195,34.403,-16.096,-81.702
-0.053,-0.288,-0.202,30.477,-31.614,-107.829
-0.040,-0.268,-0.206,25.044,-50.186,-134.095
-0.025,-0.248,-0.208,18.494,-69.584,-160.236
-0.006,-0.229,-0.208,10.864,-89.237,-187.011
0.015,-0.214,-0.206,4.028,-108.293,-212.595
0.038,-0.204,-0.206,-0.243,-125.963,-235.859
0.051,-0.202,-0.182,-0.491,-118.626,-237.889
0.028,-0.543,-0.093,-105.110,-189.288,-146.527
0.155,-0.730,0.009,-100.566,-218.870,-260.020
0.183,-0.902,0.149,-40.610,-211.562,-209.554
0.132,-0.969,0.212,4.123,-204.024,-174.506
0.319,-0.986,0.157,5.573,-191.505,-173.234
0.349,-0.977,0.145,-6.621,-175.629,-177.529
0.293,-0.951,0.163,-6.949,-159.039,-208.700
0.206,-0.954,0.178,-27.744,-154.010,-206.092
0.141,-0.990,0.220,-52.748,-150.565,-194.913
0.167,-1.034,0.251,-63.063,-146.550,-191.381
0.186,-1.048,0.260,-68.386,-143.574,-190.464
0.191,-1.055,0.264,-74.394,-140.654,-187.256
0.197,-1.075,0.267,-76.978,-137.378,-183.760
0.207,-1.102,0.276,-75.952,-133.786,-180.262
0.228,-1.128,0.284,-72.131,-129.695,-176.888
0.256,-1.148,0.285,-67.415,-125.575,-167.710
0.283,-1.163,0.284,-62.647,-121.574,-147.997
0.294,-1.168,0.285,-58.303,-117.695,-126.357
0.296,-1.170,0.286,-53.823,-113.943,-106.743
0.291,-1.166,0.290,-49.172,-110.329,-90.548
0.285,-1.157,0.293,-44.714,-106.694,-77.172
0.279,-1.147,0.298,-41.009,-101.630,-65.901
0.270,-1.136,0.302,-37.326,-97.230,-56.647
0.258,-1.122,0.305,-33.618,-94.140,-49.672
0.247,-1.108,0.309,-30.062,-91.171,-45.009
0.238,-1.093,0.313,-26.781,-88.304,-43.062
0.230,-1.079,0.317,-23.932,-85.514,-40.976
0.222,-1.067,0.320,-21.467,-82.801,-39.232
0.214,-1.056,0.324,-19.426,-80.172,-37.950
0.207,-1.044,0.327,-17.990,-77.425,-36.981
0.201,-1.032,0.329,-17.220,-74.656,-36.126
0.194,-1.021,0.330,-17.178,-72.067,-35.322
0.188,-1.012,0.330,-17.505,-69.707,-34.568
0.182,-1.005,0.329,-18.083,-67.483,-33.919
0.177,-0.998,0.328,-18.754,-65.388,-33.181
0.174,-0.994,0.327,-19.326,-63.480,-32.376
0.172,-0.990,0.325,-19.936,-61.674,-31.332
0.171,-0.988,0.324,-20.319,-59.948,-30.052
0.171,-0.987,0.322,-20.530,-58.305,-28.679
0.170,-0.985,0.320,-20.654,-56.821,-27.390
0.168,-0.983,0.317,-20.849,-55.568,-26.395
0.166,-0.982,0.314,-21.183,-54.398,-25.662
0.166,-0.981,0.312,-21.523,-53.240,-25.198
0.166,-0.980,0.310,-21.846,-52.111,-24.878
0.166,-0.980,0.307,-22.010,-50.960,-24.622
0.167,-0.979,0.304,-22.090,-49.833,-24.358
0.168,-0.980,0.302,-21.969,-48.738,-24.077
0.169,-0.982,0.299,-21.718,-47.690,-23.764
0.170,-0.982,0.297,-21.335,-46.702,-23.365
0.171,-0.983,0.295,-20.853,-45.814,-22.840
0.171,-0.983,0.292,-20.259,-45.017,-22.188
0.171,-0.983,0.290,-19.529,-44.311,-21.496
0.172,-0.983,0.288,-18.756,-43.704,-20.826
0.173,-0.983,0.287,-17.955,-43.248,-20.194
0.174,-0.983,0.286,-17.166,-42.786,-19.585
0.175,-0.983,0.285,-16.356,-42.368,-19.039
0.176,-0.982,0.285,-15.468,-41.786,-18.598
0.177,-0.981,0.285,-14.455,-40.932,-18.183
0.178,-0.980,0.285,-13.324,-39.895,-17.781
0.179,-0.979,0.286,-12.108,-38.809,-17.421
0.180,-0.978,0.286,-10.914,-37.811,-17.051
0.180,-0.977,0.287,-9.826,-36.868,-16.658
0.180,-0.975,0.288,-8.845,-35.931,-16.210
0.180,-0.974,0.289,-7.968,-35.029,-15.756
0.180,-0.972,0.290,-7.193,-34.154,-15.375
0.180,-0.972,0.291,-6.527,-33.303,-15.053
0.180,-0.971,0.292,-6.004,-32.467,-14.764
0.180,-0.970,0.293,-5.588,-31.640,-14.479
0.180,-0.969,0.294,-5.296,-30.813,-14.206
0.180,-0.969,0.294,-5.144,-29.980,-13.961
0.181,-0.968,0.295,-5.076,-29.141,-13.752
0.181,-0.968,0.295,-5.066,-28.302,-13.541
0.181,-0.967,0.296,-4.992,-27.410,-13.321
0.182,-0.966,0.296,-4.837,-26.347,-13.104
0.183,-0.965,0.296,-4.584,-25.230,-12.881
0.184,-0.965,0.296,-4.191,-24.053,-12.624
0.184,-0.966,0.295,-3.621,-22.746,-12.300
0.185,-0.965,0.295,-2.969,-21.303,-11.933
0.186,-0.965,0.296,-2.262,-19.799,-11.542
0.186,-0.965,0.296,-1.505,-18.398,-11.161
0.185,-0.965,0.296,-0.734,-17.290,-10.774
0.184,-0.964,0.296,-0.021,-16.409,-10.405
0.183,-0.964,0.296,0.604,-15.670,-10.111
0.181,-0.963,0.297,1.045,-15.059,-9.877
0.180,-0.962,0.297,1.253,-14.695,-9.717
0.179,-0.962,0.297,1.224,-14.562,-9.600
0.179,-0.961,0.298,1.070,-14.337,-9.563
0.180,-0.961,0.298,0.902,-14.081,-9.592
0.180,-0.960,0.299,0.708,-13.827,-9.634
0.180,-0.959,0.299,0.506,-13.564,-9.614
0.181,-0.958,0.300,0.260,-13.256,-9.448
0.181,-0.958,0.300,0.035,-12.976,-9.223
0.181,-0.958,0.301,-0.162,-12.713,-8.927
0.182,-0.958,0.301,-0.282,-12.437,-8.580
0.182,-0.958,0.301,-0.350,-12.158,-8.168
0.183,-0.958,0.301,-0.376,-11.862,-7.728
0.184,-0.958,0.301,-0.412,-11.558,-7.299
0.184,-0.958,0.300,-0.477,-11.248,-6.904
0.185,-0.958,0.300,-0.556,-10.927,-6.618
0.185,-0.957,0.299,-0.606,-10.596,-6.408
0.186,-0.957,0.299,-0.641,-10.258,-6.252
0.186,-0.956,0.299,-0.670,-9.921,-6.108
0.186,-0.955,0.299,-0.694,-9.592,-5.944
0.187,-0.954,0.299,-0.717,-9.284,-5.764
0.187,-0.954,0.299,-0.724,-8.981,-5.591
0.188,-0.953,0.299,-0.730,-8.683,-5.417
0.188,-0.953,0.299,-0.777,-8.423,-5.209
0.188,-0.952,0.299,-0.878,-8.193,-4.968
0.188,-0.952,0.299,-1.047,-8.001,-4.699
0.189,-0.952,0.299,-1.245,-7.846,-4.426
0.189,-0.952,0.300,-1.452,-7.763,-4.164
0.189,-0.953,0.300,-1.632,-7.726,-3.922
0.189,-0.953,0.299,-1.782,-7.704,-3.722
0.189,-0.953,0.299,-1.886,-7.716,-3.576
0.189,-0.953,0.299,-1.935,-7.734,-3.459
0.189,-0.953,0.299,-1.892,-7.671,-3.378
0.190,-0.953,0.299,-1.778,-7.524,-3.325
0.190,-0.953,0.299,-1.582,-7.373,-3.299
0.190,-0.953,0.300,-1.320,-7.266,-3.258
0.190,-0.952,0.300,-1.021,-7.198,-3.159
0.190,-0.952,0.301,-0.735,-7.173,-3.031
0.190,-0.951,0.302,-0.503,-7.205,-2.921
0.190,-0.951,0.302,-0.314,-7.243,-2.853
0.190,-0.951,0.303,-0.128,-7.270,-2.829
0.191,-0.950,0.303,0.035,-7.289,-2.836
0.191,-0.950,0.303,0.131,-7.300,-2.840
0.191,-0.949,0.303,0.146,-7.332,-2.869
0.191,-0.949,0.304,0.124,-7.380,-2.949
0.191,-0.949,0.304,0.077,-7.443,-3.093
0.191,-0.949,0.304,0.021,-7.496,-3.295
0.191,-0.948,0.304,-0.002,-7.529,-3.487
0.192,-0.947,0.304,-0.035,-7.556,-3.644
0.192,-0.946,0.304,-0.115,-7.618,-3.773
0.192,-0.946,0.304,-0.205,-7.701,-3.899
0.192,-0.946,0.304,-0.283,-7.782,-4.013
0.193,-0.947,0.304,-0.323,-7.846,-4.081

0.358,-1.160,0.365,-5.086,-9.606,-3.751
0.364,-1.169,0.366,-9.599,-11.043,-2.682
0.366,-1.181,0.366,-13.305,-12.583,-1.218
0.368,-1.194,0.364,-16.017,-14.209,0.757
0.370,-1.206,0.364,-17.623,-15.649,3.617
0.372,-1.216,0.363,-18.478,-16.684,8.075
0.374,-1.224,0.363,-18.535,-17.236,13.370
0.374,-1.232,0.362,-18.174,-17.534,19.325
0.374,-1.239,0.362,-17.719,-17.681,26.081
0.375,-1.246,0.360,-17.300,-17.705,33.564
0.376,-1.254,0.358,-16.911,-17.726,41.653
0.376,-1.264,0.354,-16.449,-17.810,50.427
0.376,-1.274,0.349,-15.727,-17.966,59.268
0.376,-1.283,0.345,-14.732,-18.128,68.477
0.375,-1.293,0.341,-13.334,-18.256,78.076
0.374,-1.301,0.337,-11.536,-18.194,87.442
0.372,-1.307,0.333,-9.425,-17.909,96.619
0.370,-1.309,0.330,-7.138,-17.341,107.056
0.366,-1.309,0.327,-4.757,-16.587,117.436
0.361,-1.307,0.323,-2.434,-15.740,126.350
0.355,-1.299,0.318,0.112,-14.725,136.392
0.348,-1.292,0.313,3.090,-13.135,147.571
0.340,-1.284,0.307,6.850,-11.580,157.553
0.331,-1.271,0.300,10.998,-10.001,166.294
0.322,-1.253,0.293,15.258,-8.129,174.438
0.312,-1.232,0.285,19.446,-5.750,181.908
0.302,-1.209,0.277,23.436,-3.126,188.419
0.291,-1.184,0.269,27.260,-0.298,193.979
0.280,-1.156,0.260,30.603,3.039,198.373
0.266,-1.127,0.252,33.496,6.664,201.578
0.250,-1.096,0.243,35.832,10.188,203.633
0.234,-1.064,0.235,37.656,13.414,204.548
0.217,-1.032,0.227,38.992,16.409,204.307
0.200,-1.000,0.219,40.114,19.234,203.045
0.183,-0.968,0.210,41.012,21.861,200.531
0.165,-0.936,0.199,41.737,24.277,197.177
0.147,-0.903,0.187,42.300,26.466,193.057
0.128,-0.870,0.174,42.635,28.524,188.323
0.110,-0.835,0.159,42.731,30.528,183.153
0.091,-0.798,0.144,42.587,32.308,177.552
0.069,-0.762,0.129,42.130,33.660,171.607
0.048,-0.726,0.113,41.238,34.467,165.482
0.027,-0.689,0.097,39.748,34.781,159.331
0.008,-0.654,0.080,37.600,34.649,153.344
-0.012,-0.620,0.064,34.175,34.062,147.924
-0.030,-0.588,0.048,29.988,32.774,142.794
-0.045,-0.557,0.033,25.087,30.724,135.497
-0.059,-0.528,0.017,19.715,28.059,126.046
-0.070,-0.500,0.001,14.634,24.679,114.312
-0.080,-0.475,-0.014,10.268,20.778,100.315
-0.086,-0.452,-0.029,6.576,16.375,84.059
-0.090,-0.431,-0.044,3.937,11.640,64.732
-0.091,-0.411,-0.058,2.398,6.548,43.682
-0.091,-0.392,-0.070,1.813,1.172,21.768
-0.087,-0.374,-0.079,2.018,-4.302,-0.647
-0.081,-0.358,-0.087,2.785,-9.636,-23.374
-0.074,-0.341,-0.093,4.002,-14.895,-46.898
-0.066,-0.323,-0.100,5.411,-20.187,-70.395
-0.056,-0.304,-0.106,6.891,-25.661,-93.643
-0.044,-0.285,-0.111,8.228,-31.661,-116.476
-0.030,-0.266,-0.115,9.248,-38.066,-138.706
-0.014,-0.246,-0.117,9.688,-45.319,-161.213
0.004,-0.230,-0.116,9.720,-53.722,-183.633
0.025,-0.218,-0.112,9.294,-63.500,-205.865
0.052,-0.212,-0.103,8.808,-75.091,-230.869
0.118,-0.421,0.300,11.650,-146.578,-292.228
0.203,-0.525,0.445,-117.343,-142.383,-256.589
0.116,-0.663,0.395,-208.397,-101.726,-244.119
0.284,-0.767,0.479,-174.937,-69.789,-238.959
0.323,-0.736,0.440,-167.632,-68.736,-229.968
0.330,-0.719,0.412,-159.721,-57.368,-224.777
0.323,-0.739,0.407,-151.755,-37.687,-226.653
0.274,-0.757,0.423,-146.167,-35.489,-223.224
0.208,-0.795,0.430,-150.575,-41.018,-215.244
0.223,-0.854,0.434,-150.049,-43.877,-206.118
0.254,-0.906,0.433,-144.621,-44.870,-200.775
0.274,-0.936,0.431,-138.045,-43.768,-196.536
0.278,-0.960,0.430,-131.528,-42.506,-192.285
0.275,-0.980,0.433,-125.207,-41.297,-189.311
0.273,-0.992,0.435,-119.161,-39.673,-185.499
0.290,-1.008,0.429,-113.157,-37.593,-179.855
0.310,-1.021,0.423,-107.481,-35.561,-168.368
0.313,-1.024,0.421,-102.593,-32.553,-155.845
0.305,-1.019,0.418,-97.680,-29.650,-142.883
0.296,-1.010,0.419,-92.663,-26.716,-130.135
0.290,-1.003,0.423,-87.730,-23.282,-117.986
0.285,-0.999,0.427,-83.043,-20.057,-106.337
0.278,-0.992,0.432,-78.553,-17.332,-96.910
0.271,-0.982,0.435,-74.154,-16.231,-88.537
0.262,-0.971,0.435,-69.856,-15.317,-80.749
0.254,-0.962,0.434,-65.669,-14.808,-74.009
0.247,-0.947,0.433,-61.605,-14.252,-69.274
0.241,-0.936,0.431,-57.754,-13.856,-64.825
0.236,-0.925,0.430,-54.261,-13.032,-60.752
0.231,-0.916,0.428,-51.219,-12.553,-57.647
0.225,-0.905,0.428,-48.886,-12.020,-56.847
0.216,-0.895,0.426,-48.155,-11.636,-56.039
0.210,-0.888,0.424,-48.346,-11.330,-55.275
0.206,-0.885,0.420,-48.835,-11.077,-54.492
0.204,-0.883,0.416,-49.353,-10.914,-53.581
0.202,-0.882,0.412,-49.972,-10.893,-52.535
0.199,-0.881,0.406,-50.963,-11.155,-51.383
0.196,-0.881,0.400,-52.241,-11.679,-50.233
0.194,-0.883,0.394,-53.613,-12.657,-49.059
0.194,-0.886,0.388,-54.862,-13.900,-47.857
0.194,-0.890,0.381,-55.922,-15.371,-46.674
0.195,-0.895,0.374,-56.612,-16.690,-45.490
0.198,-0.900,0.367,-56.958,-17.689,-44.342
0.200,-0.906,0.360,-56.978,-18.329,-43.189
0.202,-0.911,0.353,-56.599,-18.611,-42.045
0.204,-0.915,0.347,-55.957,-18.660,-40.782
0.204,-0.919,0.342,-55.209,-18.849,-39.386
0.205,-0.924,0.336,-54.285,-18.792,-38.062
0.207,-0.929,0.331,-52.938,-18.314,-36.820
0.208,-0.934,0.325,-51.299,-17.746,-35.551
0.208,-0.937,0.320,-49.463,-17.136,-34.196
0.208,-0.940,0.315,-47.374,-16.489,-32.789
0.208,-0.942,0.310,-45.236,-15.841,-31.427
0.207,-0.943,0.305,-43.130,-15.219,-30.077
0.206,-0.945,0.300,-40.979,-14.548,-28.675
0.204,-0.947,0.297,-38.717,-13.840,-27.220
0.202,-0.947,0.294,-36.377,-13.156,-25.925
0.199,-0.947,0.292,-34.139,-12.498,-24.823
0.196,-0.946,0.291,-32.045,-11.881,-23.909
0.194,-0.946,0.291,-30.082,-11.314,-23.125
0.191,-0.946,0.291,-28.258,-10.790,-22.423
0.189,-0.946,0.291,-26.554,-10.299,-21.798
0.187,-0.946,0.290,-24.968,-9.811,-21.325
0.184,-0.945,0.290,-23.583,-9.370,-20.876
0.183,-0.945,0.290,-22.349,-8.987,-20.375
0.181,-0.944,0.289,-21.255,-8.674,-19.815
0.179,-0.944,0.288,-20.247,-8.367,-19.216
0.178,-0.945,0.287,-19.254,-7.964,-18.667
0.178,-0.945,0.286,-18.291,-7.439,-18.142
0.177,-0.944,0.286,-17.382,-6.845,-17.598
0.176,-0.944,0.286,-16.514,-6.174,-17.051
0.175,-0.945,0.285,-15.641,-5.418,-16.602
0.174,-0.946,0.284,-14.798,-4.705,-16.193
0.173,-0.947,0.282,-14.033,-4.228,-15.781
0.172,-0.949,0.280,-13.330,-3.854,-15.366
0.170,-0.950,0.278,-12.712,-3.640,-14.871
0.170,-0.952,0.276,-12.131,-3.557,-14.307
0.169,-0.953,0.275,-11.594,-3.547,-13.693
0.169,-0.954,0.274,-11.094,-3.600,-13.100
0.169,-0.956,0.273,-10.589,-3.635,-12.591
0.169,-0.957,0.272,-10.027,-3.554,-12.252
0.169,-0.958,0.270,-9.430,-3.406,-12.003
0.169,-0.960,0.268,-8.846,-3.270,-11.790
0.169,-0.960,0.267,-8.287,-3.207,-11.551
0.169,-0.961,0.265,-7.806,-3.194,-11.211
0.170,-0.961,0.264,-7.335,-3.132,-10.854
0.170,-0.962,0.263,-6.867,-3.075,-10.470
0.170,-0.962,0.263,-6.429,-3.039,-10.104
0.171,-0.963,0.262,-6.012,-2.991,-9.769
0.171,-0.963,0.260,-5.621,-2.928,-9.423
0.172,-0.963,0.259,-5.249,-2.830,-9.063
0.172,-0.963,0.257,-4.873,-2.715,-8.676
0.173,-0.963,0.256,-4.530,-2.600,-8.276
0.173,-0.963,0.255,-4.217,-2.492,-7.896
0.173,-0.962,0.254,-3.923,-2.393,-7.508
0.174,-0.962,0.253,-3.636,-2.299,-7.129
0.174,-0.962,0.252,-3.388,-2.231,-6.810
0.173,-0.962,0.252,-3.205,-2.193,-6.551
0.173,-0.961,0.251,-3.077,-2.177,-6.321
0.173,-0.960,0.250,-2.992,-2.156,-6.121
0.174,-0.960,0.249,-2.939,-2.131,-5.963
0.174,-0.960,0.248,-2.946,-2.113,-5.845
0.174,-0.959,0.247,-3.018,-2.095,-5.748
0.174,-0.960,0.246,-3.097,-2.060,-5.677
0.174,-0.960,0.245,-3.183,-2.004,-5.611
0.175,-0.960,0.245,-3.285,-1.947,-5.519
0.175,-0.960,0.244,-3.327,-1.895,-5.402
0.176,-0.961,0.243,-3.284,-1.840,-5.255
0.177,-0.961,0.242,-3.160,-1.829,-5.049
0.177,-0.962,0.241,-2.927,-1.874,-4.798
0.176,-0.962,0.240,-2.626,-2.005,-4.439
0.176,-0.963,0.239,-2.252,-2.179,-4.016
0.177,-0.963,0.238,-1.816,-2.371,-3.566
0.177,-0.963,0.238,-1.362,-2.620,-3.089
0.176,-0.964,0.238,-0.913,-2.822,-2.709
0.176,-0.964,0.238,-0.521,-2.972,-2.455
0.176,-0.964,0.238,-0.174,-3.093,-2.281
0.176,-0.964,0.238,0.144,-3.188,-2.107
0.176,-0.965,0.239,0.442,-3.331,-1.913
0.176,-0.965,0.239,0.723,-3.476,-1.760
0.175,-0.965,0.240,0.941,-3.676,-1.622
0.175,-0.965,0.241,1.093,-3.870,-1.622
0.174,-0.965,0.242,1.153,-4.084,-1.672
0.174,-0.965,0.244,1.115,-4.310,-1.779
0.173,-0.965,0.245,0.991,-4.543,-1.914
0.173,-0.966,0.246,0.842,-4.797,-2.022
0.173,-0.967,0.246,0.707,-5.066,-2.109
0.174,-0.969,0.247,0.571,-5.352,-2.191
0.174,-0.970,0.247,0.453,-5.641,-2.238
0.174,-0.971,0.248,0.405,-5.928,-2.241
0.174,-0.972,0.248,0.412,-6.220,-2.213
0.174,-0.973,0.249,0.432,-6.552,-2.186
0.175,-0.974,0.250,0.468,-6.909,-2.157
0.175,-0.975,0.251,0.554,-7.267,-2.147

0.272,-1.289,0.304,-2.556,-9.343,2.122
0.273,-1.301,0.305,-4.671,-11.125,7.011
0.275,-1.313,0.305,-5.843,-12.579,12.519
0.276,-1.325,0.305,-5.914,-13.665,18.834
0.276,-1.333,0.305,-4.990,-14.355,26.081
0.275,-1.336,0.307,-3.363,-14.615,35.524
0.273,-1.338,0.310,-1.464,-14.893,45.502
0.271,-1.340,0.315,0.704,-15.087,55.728
0.270,-1.342,0.319,2.831,-15.095,66.616
0.271,-1.345,0.323,4.967,-14.874,77.365
0.271,-1.347,0.327,6.983,-14.491,87.174
0.269,-1.345,0.329,8.816,-14.093,94.794
0.267,-1.341,0.331,10.389,-13.215,104.861
0.266,-1.341,0.331,12.574,-11.729,116.176
0.265,-1.340,0.330,15.335,-9.909,126.597
0.262,-1.334,0.329,18.194,-8.096,135.882
0.261,-1.327,0.326,21.041,-5.735,144.448
0.260,-1.319,0.322,24.068,-2.211,152.521
0.258,-1.311,0.318,27.568,2.000,160.570
0.255,-1.300,0.314,31.696,6.553,168.426
0.250,-1.286,0.311,35.768,11.304,176.075
0.246,-1.270,0.308,39.495,16.426,183.759
0.241,-1.250,0.304,42.781,22.096,191.076
0.234,-1.227,0.300,45.453,28.281,197.494
0.225,-1.200,0.295,47.447,34.887,202.899
0.214,-1.171,0.289,48.781,41.821,207.304
0.203,-1.141,0.281,49.549,49.008,210.776
0.191,-1.108,0.272,50.026,56.421,213.174
0.177,-1.073,0.261,50.268,64.011,214.323
0.160,-1.036,0.249,50.140,71.285,214.311
0.142,-0.997,0.236,49.509,77.814,213.058
0.123,-0.957,0.221,48.282,83.360,210.632
0.102,-0.917,0.204,46.388,87.680,207.174
0.081,-0.878,0.187,43.908,90.545,202.754
0.060,-0.839,0.170,40.478,92.178,197.059
0.037,-0.802,0.154,36.524,92.726,190.749
0.016,-0.766,0.136,32.438,92.449,184.088
-0.004,-0.731,0.119,28.524,91.585,177.425
-0.022,-0.698,0.101,24.822,90.253,171.097
-0.038,-0.664,0.084,21.315,88.591,165.435
-0.053,-0.632,0.067,17.849,86.762,159.626
-0.066,-0.601,0.050,14.371,84.428,151.011
-0.077,-0.572,0.034,10.909,81.103,138.376
-0.086,-0.543,0.019,7.431,76.539,122.746
-0.094,-0.514,0.005,4.010,70.591,104.098
-0.100,-0.486,-0.009,0.769,63.401,82.691
-0.105,-0.459,-0.022,-2.214,54.650,58.755
-0.107,-0.433,-0.035,-4.270,44.921,32.607
-0.108,-0.411,-0.048,-4.892,34.520,1.375
-0.106,-0.392,-0.059,-4.016,23.889,-28.662
-0.102,-0.377,-0.067,-2.497,13.722,-58.887
-0.094,-0.362,-0.073,-0.676,4.211,-89.153
-0.086,-0.346,-0.076,2.180,-4.872,-119.163
-0.076,-0.328,-0.077,6.509,-13.972,-149.222
-0.065,-0.308,-0.076,11.207,-23.477,-177.562
-0.054,-0.286,-0.074,15.689,-33.917,-203.509
-0.039,-0.261,-0.071,19.430,-45.201,-226.849
-0.021,-0.235,-0.068,21.800,-57.492,-247.697
-0.001,-0.210,-0.064,23.262,-70.319,-266.207
0.023,-0.188,-0.062,24.284,-82.995,-282.328
0.052,-0.171,-0.058,24.682,-102.911,-310.024
0.125,-0.548,-0.001,2.502,-113.861,-365.114
0.001,-0.538,0.081,-92.312,-119.949,-345.990
0.024,-0.704,0.210,-87.799,-113.536,-320.656
0.206,-0.818,0.213,-78.049,-92.626,-310.588
0.249,-0.860,0.235,-61.682,-96.635,-302.806
0.251,-0.865,0.246,-56.275,-90.614,-293.490
0.232,-0.848,0.246,-52.505,-76.112,-294.419
0.180,-0.839,0.256,-57.209,-72.580,-286.553
0.119,-0.855,0.280,-77.435,-76.674,-278.667
0.113,-0.882,0.310,-105.685,-78.877,-272.745
0.143,-0.913,0.321,-130.252,-77.689,-266.037
0.171,-0.946,0.322,-147.906,-76.069,-258.884
0.186,-0.983,0.322,-154.694,-74.421,-251.715
0.199,-1.022,0.317,-153.807,-72.379,-245.094
0.223,-1.056,0.309,-148.269,-70.106,-235.964
0.247,-1.084,0.298,-141.456,-67.872,-217.872
0.252,-1.102,0.292,-135.912,-64.084,-199.695
0.250,-1.109,0.286,-128.103,-58.820,-181.377
0.248,-1.108,0.283,-118.355,-52.756,-163.668
0.246,-1.102,0.281,-108.809,-47.136,-148.024
0.242,-1.094,0.282,-100.320,-41.953,-134.165
0.238,-1.086,0.284,-92.952,-37.225,-122.632
0.232,-1.077,0.286,-86.658,-33.567,-112.368
0.227,-1.070,0.289,-80.714,-30.977,-102.487
0.222,-1.063,0.292,-74.440,-29.095,-94.091
0.217,-1.052,0.295,-68.301,-27.559,-87.280
0.211,-1.038,0.298,-62.874,-26.097,-81.959
0.206,-1.022,0.302,-58.569,-24.807,-77.963
0.201,-1.006,0.305,-55.274,-23.693,-74.570
0.197,-0.992,0.308,-52.026,-22.694,-71.487
0.193,-0.980,0.312,-48.929,-21.800,-68.702
0.190,-0.969,0.315,-46.046,-20.971,-66.123
0.187,-0.959,0.317,-43.451,-20.247,-63.722
0.184,-0.950,0.319,-41.365,-19.824,-61.063
0.179,-0.943,0.320,-39.770,-19.917,-58.113
0.174,-0.937,0.321,-38.609,-21.413,-55.050
0.172,-0.932,0.322,-37.998,-22.404,-52.016
0.171,-0.927,0.321,-37.857,-23.430,-49.192
0.171,-0.922,0.320,-38.276,-24.414,-46.780
0.171,-0.919,0.319,-39.020,-25.238,-44.780
0.171,-0.917,0.318,-39.960,-25.874,-43.168
0.172,-0.915,0.316,-41.015,-26.327,-41.868
0.174,-0.915,0.315,-42.111,-26.620,-40.881
0.175,-0.914,0.313,-43.247,-26.759,-40.185
0.176,-0.914,0.311,-44.422,-26.798,-39.592
0.177,-0.915,0.310,-45.544,-26.701,-39.032
0.179,-0.917,0.308,-46.405,-26.428,-38.474
0.180,-0.919,0.306,-46.910,-26.033,-37.874
0.182,-0.921,0.303,-46.989,-25.604,-37.125
0.183,-0.924,0.301,-46.548,-25.117,-36.287
0.185,-0.927,0.298,-45.778,-24.608,-35.284
0.186,-0.930,0.295,-44.743,-24.064,-34.222
0.188,-0.932,0.293,-43.552,-23.499,-33.169
0.189,-0.934,0.290,-41.595,-22.921,-32.050
0.189,-0.937,0.289,-40.206,-22.355,-30.978
0.190,-0.939,0.288,-38.780,-21.816,-30.019
0.191,-0.942,0.287,-37.334,-21.274,-29.175
0.191,-0.944,0.285,-35.838,-20.722,-28.402
0.191,-0.946,0.284,-34.304,-20.169,-27.622
0.191,-0.948,0.283,-32.740,-19.620,-26.839
0.191,-0.950,0.284,-31.202,-19.094,-26.109
0.191,-0.952,0.284,-29.715,-18.610,-25.433
0.191,-0.953,0.283,-28.249,-18.157,-24.807
0.191,-0.954,0.283,-26.795,-17.713,-24.202
0.191,-0.955,0.282,-25.373,-17.267,-23.557
0.191,-0.955,0.282,-23.959,-16.659,-22.900
0.194,-0.955,0.282,-22.489,-15.496,-22.322
0.196,-0.956,0.283,-20.981,-13.977,-21.817
0.197,-0.956,0.284,-19.461,-12.346,-21.329
0.196,-0.955,0.285,-17.936,-10.752,-20.842
0.196,-0.955,0.285,-16.464,-9.379,-20.293
0.194,-0.954,0.286,-15.103,-8.329,-19.674
0.193,-0.953,0.286,-13.895,-7.577,-18.969
0.191,-0.952,0.287,-12.868,-7.102,-18.158
0.190,-0.951,0.287,-12.085,-6.784,-17.337
0.189,-0.950,0.289,-11.474,-6.576,-16.550
0.189,-0.948,0.290,-10.982,-6.421,-15.885
0.189,-0.948,0.291,-10.548,-6.246,-15.363
0.189,-0.947,0.291,-10.128,-6.033,-14.943
0.190,-0.946,0.292,-9.709,-5.787,-14.592
0.190,-0.946,0.292,-9.334,-5.538,-14.265
0.191,-0.946,0.293,-9.032,-5.332,-13.965
0.192,-0.946,0.293,-8.791,-5.177,-13.685
0.192,-0.947,0.293,-8.574,-5.066,-13.420
0.193,-0.947,0.293,-8.370,-5.010,-13.188
0.193,-0.947,0.293,-8.228,-5.022,-12.997
0.194,-0.948,0.293,-8.181,-5.099,-12.858
0.195,-0.948,0.293,-8.248,-5.264,-12.756
0.195,-0.948,0.294,-8.427,-5.323,-12.606
0.196,-0.949,0.294,-8.588,-5.310,-12.397
0.197,-0.949,0.294,-8.686,-5.299,-12.156
0.199,-0.950,0.294,-8.709,-5.241,-11.867
0.200,-0.951,0.293,-8.671,-5.124,-11.527
0.201,-0.951,0.293,-8.567,-4.981,-11.138
0.202,-0.952,0.293,-8.427,-4.824,-10.720
0.203,-0.952,0.292,-8.278,-4.637,-10.330
0.204,-0.953,0.292,-8.091,-4.426,-9.940
0.204,-0.953,0.291,-7.846,-4.194,-9.570
0.205,-0.954,0.291,-7.545,-3.953,-9.213
0.205,-0.954,0.290,-7.230,-3.808,-8.801
0.205,-0.954,0.289,-7.018,-3.741,-8.373
0.205,-0.954,0.289,-6.775,-3.600,-7.975
0.206,-0.954,0.288,-6.507,-3.418,-7.569
0.206,-0.954,0.287,-6.216,-3.271,-7.150
0.206,-0.954,0.287,-5.938,-3.155,-6.738
0.205,-0.954,0.287,-5.660,-3.070,-6.316
0.205,-0.953,0.287,-5.460,-3.064,-5.864
0.204,-0.953,0.286,-5.294,-3.056,-5.463
0.204,-0.952,0.285,-5.166,-3.024,-5.127
0.204,-0.952,0.284,-5.051,-3.036,-4.781
0.203,-0.951,0.283,-4.918,-3.080,-4.440
0.203,-0.951,0.283,-4.758,-3.096,-4.130
0.202,-0.950,0.282,-4.609,-3.138,-3.840
0.202,-0.949,0.281,-4.469,-3.212,-3.558
0.201,-0.948,0.281,-4.305,-3.280,-3.308
0.201,-0.947,0.280,-4.142,-3.405,-3.069
0.200,-0.947,0.280,-3.957,-3.499,-2.887
0.200,-0.946,0.280,-3.761,-3.522,-2.758
0.199,-0.946,0.280,-3.581,-3.553,-2.641
0.199,-0.946,0.280,-3.381,-3.603,-2.553
0.198,-0.946,0.280,-3.167,-3.668,-2.520
0.198,-0.945,0.280,-2.992,-3.765,-2.563
0.197,-0.945,0.280,-2.888,-3.991,-2.571
0.196,-0.945,0.280,-2.782,-4.258,-2.574
0.197,-0.945,0.280,-2.660,-4.425,-2.639
0.197,-0.945,0.280,-2.576,-4.537,-2.755
0.197,-0.945,0.280,-2.552,-4.618,-2.925
0.197,-0.945,0.280,-2.557,-4.687,-3.097
0.196,-0.945,0.280,-2.574,-4.795,-3.245
0.197,-0.946,0.280,-2.565,-4.929,-3.377
0.197,-0.946,0.281,-2.548,-5.100,-3.489
0.197,-0.947,0.281,-2.537,-5.304,-3.589
0.197,-0.948,0.281,-2.518,-5.548,-3.681
0.198,-0.949,0.282,-2.478,-5.810,-3.770
0.198,-0.950,0.282,-2.452,-6.104,-3.856
0.199,-0.951,0.283,-2.495,-6.395,-3.930
0.200,-0.951,0.283,-2.620,-6.687,-3.974
0.201,-0.952,0.283,-2.834,-6.974,-3.955

0.307,-1.250,0.311,-2.838,-7.929,-0.210
0.310,-1.258,0.311,-2.504,-8.613,4.017
0.313,-1.264,0.312,-2.001,-9.082,9.242
0.315,-1.269,0.312,-1.548,-9.395,15.049
0.317,-1.275,0.311,-1.240,-9.559,21.301
0.319,-1.280,0.306,-1.174,-9.560,27.889
0.320,-1.286,0.303,-1.384,-9.541,34.706
0.321,-1.292,0.301,-1.782,-9.536,41.567
0.322,-1.297,0.300,-2.226,-9.580,48.501
0.323,-1.304,0.299,-2.497,-9.681,55.278
0.324,-1.312,0.298,-2.576,-9.819,62.053
0.326,-1.323,0.297,-2.296,-9.870,69.136
0.330,-1.335,0.297,-1.566,-9.757,76.622
0.334,-1.346,0.296,-0.415,-9.375,84.646
0.336,-1.354,0.298,1.104,-8.610,93.501
0.337,-1.351,0.301,4.527,-7.241,103.732
0.336,-1.344,0.304,9.193,-5.397,114.470
0.336,-1.330,0.307,14.980,-3.780,124.118
0.335,-1.311,0.310,20.212,0.291,138.301
0.338,-1.296,0.310,26.030,6.074,154.719
0.335,-1.282,0.308,31.511,11.214,170.690
0.328,-1.260,0.304,35.753,16.356,184.615
0.318,-1.233,0.299,38.614,23.021,197.014
0.306,-1.202,0.293,40.546,30.409,207.698
0.290,-1.168,0.287,41.776,36.978,216.104
0.271,-1.132,0.280,42.335,42.563,221.814
0.253,-1.090,0.272,42.642,47.709,225.740
0.233,-1.046,0.260,42.749,52.777,227.904
0.213,-1.000,0.244,42.670,57.613,228.086
0.190,-0.954,0.223,42.378,62.011,226.291
0.167,-0.908,0.199,41.505,65.864,222.872
0.139,-0.861,0.173,39.947,68.777,218.388
0.115,-0.815,0.147,37.859,70.761,212.959
0.092,-0.774,0.121,35.543,71.987,206.678
0.072,-0.738,0.099,33.475,72.469,199.720
0.054,-0.705,0.077,32.058,72.183,192.652
0.039,-0.673,0.060,31.170,71.259,185.841
0.028,-0.637,0.048,31.195,70.029,180.053
0.018,-0.602,0.039,31.698,68.684,172.727
0.010,-0.566,0.031,32.332,67.283,161.727
0.002,-0.527,0.024,32.928,65.689,146.932
-0.007,-0.488,0.016,33.379,63.510,128.434
-0.016,-0.450,0.006,33.582,60.185,106.485
-0.023,-0.413,-0.005,33.451,55.773,81.811
-0.028,-0.378,-0.016,32.917,50.044,54.636
-0.031,-0.346,-0.029,31.820,43.079,23.221
-0.031,-0.317,-0.041,30.607,34.792,-10.458
-0.028,-0.291,-0.053,29.342,25.102,-45.878
-0.022,-0.266,-0.063,28.211,13.660,-82.216
-0.012,-0.243,-0.071,27.249,1.899,-118.574
0.001,-0.221,-0.078,26.422,-9.833,-155.698
0.017,-0.201,-0.082,25.639,-21.545,-191.445
0.035,-0.182,-0.083,24.904,-33.354,-225.372
0.056,-0.165,-0.082,24.229,-44.493,-254.214
0.080,-0.151,-0.079,23.527,-56.150,-283.447
0.111,-0.142,-0.073,22.200,-67.023,-316.999
0.161,-0.488,0.309,21.595,-332.171,-323.400
0.189,-0.582,0.058,-55.056,-319.797,-313.334
0.213,-0.731,0.265,-66.187,-276.909,-292.889
0.298,-0.818,0.252,-63.139,-234.677,-282.222
0.388,-0.936,0.292,-58.265,-226.807,-278.838
0.405,-0.953,0.292,-55.303,-219.353,-277.354
0.408,-0.951,0.279,-52.542,-212.884,-269.091
0.379,-0.943,0.295,-50.612,-167.279,-265.298
0.337,-0.928,0.316,-55.409,-146.435,-262.464
0.305,-0.947,0.321,-73.098,-143.934,-255.094
0.297,-0.996,0.334,-92.499,-145.849,-247.858
0.312,-1.039,0.350,-101.369,-143.110,-240.880
0.325,-1.068,0.357,-105.408,-138.866,-234.344
0.320,-1.088,0.359,-107.680,-134.931,-228.342
0.317,-1.111,0.353,-107.994,-129.083,-222.306
0.338,-1.146,0.342,-103.580,-124.583,-212.179
0.373,-1.177,0.336,-94.371,-120.847,-194.644
0.388,-1.188,0.333,-77.431,-106.723,-171.835
0.395,-1.187,0.326,-55.756,-89.922,-148.327
0.382,-1.178,0.322,-34.698,-78.080,-129.491
0.356,-1.155,0.317,-22.009,-70.667,-116.009
0.334,-1.131,0.318,-14.865,-65.845,-106.208
0.321,-1.110,0.321,-11.167,-61.017,-98.131
0.313,-1.093,0.324,-9.030,-56.803,-90.960
0.304,-1.080,0.328,-7.290,-53.079,-85.311
0.298,-1.070,0.331,-5.347,-50.150,-80.566
0.293,-1.059,0.335,-3.215,-47.953,-76.359
0.286,-1.047,0.338,-1.026,-46.426,-72.501
0.278,-1.033,0.341,0.973,-45.036,-69.430
0.270,-1.017,0.343,2.400,-43.808,-66.661
0.264,-1.002,0.344,3.493,-42.729,-64.409
0.259,-0.988,0.345,4.198,-41.726,-62.464
0.256,-0.974,0.345,4.361,-40.764,-60.684
0.253,-0.962,0.346,3.866,-39.915,-59.096
0.248,-0.951,0.345,2.579,-39.308,-57.580
0.242,-0.942,0.344,0.484,-39.051,-56.031
0.237,-0.936,0.344,-2.396,-39.074,-54.361
0.235,-0.931,0.343,-5.669,-39.206,-52.730
0.232,-0.926,0.342,-9.341,-39.424,-51.242
0.230,-0.923,0.340,-13.395,-39.830,-49.925
0.228,-0.921,0.338,-17.697,-40.231,-48.784
0.226,-0.919,0.335,-22.051,-40.595,-47.834
0.226,-0.920,0.331,-26.331,-40.744,-46.942
0.226,-0.921,0.326,-30.203,-40.730,-46.138
0.226,-0.922,0.321,-33.704,-40.345,-45.383
0.226,-0.925,0.316,-36.769,-39.730,-44.630
0.226,-0.929,0.311,-39.186,-38.960,-43.809
0.227,-0.935,0.306,-40.566,-38.073,-42.940
0.227,-0.941,0.302,-41.143,-37.095,-41.959
0.226,-0.948,0.297,-41.028,-36.103,-40.848
0.226,-0.954,0.293,-40.339,-35.114,-39.696
0.226,-0.959,0.289,-39.233,-34.108,-38.535
0.226,-0.962,0.286,-37.770,-33.068,-37.482
0.226,-0.965,0.284,-36.214,-32.017,-36.439
0.226,-0.968,0.282,-34.567,-30.930,-35.409
0.226,-0.971,0.280,-32.856,-29.800,-34.402
0.225,-0.973,0.278,-31.116,-28.644,-33.407
0.224,-0.974,0.277,-29.375,-27.482,-32.439
0.223,-0.975,0.277,-27.679,-26.358,-31.494
0.222,-0.976,0.277,-26.051,-25.306,-30.584
0.221,-0.975,0.277,-24.500,-24.319,-29.701
0.219,-0.974,0.278,-23.030,-23.426,-28.829
0.218,-0.973,0.280,-21.669,-22.620,-27.970
0.216,-0.971,0.281,-20.447,-21.907,-27.156
0.215,-0.969,0.282,-19.369,-21.264,-26.372
0.214,-0.967,0.283,-18.396,-20.646,-25.555
0.215,-0.966,0.283,-17.450,-19.967,-24.669
0.215,-0.964,0.282,-16.525,-19.265,-23.740
0.215,-0.962,0.282,-15.625,-18.486,-22.786
0.215,-0.960,0.282,-14.774,-17.585,-21.833
0.215,-0.958,0.283,-13.954,-16.595,-20.964
0.214,-0.957,0.284,-13.179,-15.781,-20.211
0.212,-0.956,0.285,-12.475,-15.147,-19.537
0.211,-0.956,0.286,-11.809,-14.615,-18.930
0.209,-0.955,0.286,-11.220,-14.255,-18.378
0.208,-0.954,0.285,-10.751,-14.060,-17.882
0.206,-0.953,0.285,-10.388,-13.993,-17.475
0.206,-0.953,0.285,-10.111,-13.929,-17.123
0.206,-0.953,0.285,-9.870,-13.877,-16.795
0.205,-0.953,0.285,-9.581,-13.768,-16.487
0.205,-0.953,0.286,-9.266,-13.591,-16.181
0.205,-0.953,0.286,-8.975,-13.351,-15.895
0.205,-0.954,0.286,-8.683,-13.066,-15.663
0.206,-0.955,0.285,-8.336,-12.755,-15.457
0.206,-0.956,0.284,-7.958,-12.449,-15.251
0.206,-0.957,0.284,-7.617,-12.192,-15.039
0.206,-0.957,0.283,-7.332,-11.993,-14.848
0.206,-0.958,0.283,-7.169,-11.847,-14.711
0.206,-0.958,0.283,-7.092,-11.758,-14.598
0.206,-0.958,0.283,-7.116,-11.701,-14.486
0.205,-0.958,0.284,-7.213,-11.448,-14.235
0.206,-0.960,0.283,-7.204,-11.200,-13.863
0.207,-0.961,0.283,-7.041,-10.905,-13.456
0.207,-0.962,0.282,-6.811,-10.574,-13.017
0.208,-0.962,0.282,-6.580,-10.191,-12.538
0.209,-0.962,0.281,-6.347,-9.789,-12.053
0.210,-0.962,0.281,-6.135,-9.371,-11.583
0.210,-0.962,0.280,-5.955,-8.945,-11.102
0.210,-0.962,0.280,-5.782,-8.508,-10.596
0.210,-0.961,0.280,-5.605,-8.062,-10.070
0.211,-0.961,0.279,-5.425,-7.600,-9.535
0.211,-0.961,0.278,-5.254,-7.127,-8.991
0.211,-0.961,0.277,-5.069,-6.653,-8.449
0.210,-0.960,0.277,-4.885,-6.188,-7.935
0.210,-0.960,0.276,-4.704,-5.745,-7.476
0.209,-0.959,0.276,-4.550,-5.334,-7.073
0.209,-0.959,0.276,-4.430,-4.949,-6.704
0.208,-0.958,0.275,-4.333,-4.612,-6.339
0.208,-0.958,0.275,-4.226,-4.340,-5.958
0.207,-0.958,0.274,-4.083,-4.137,-5.574
0.206,-0.958,0.274,-3.916,-4.024,-5.163
0.205,-0.958,0.274,-3.763,-4.006,-4.725
0.204,-0.958,0.274,-3.609,-4.058,-4.276
0.203,-0.958,0.274,-3.489,-4.194,-3.770
0.202,-0.958,0.273,-3.372,-4.425,-3.254
0.202,-0.958,0.273,-3.236,-4.598,-2.822
0.201,-0.957,0.273,-3.115,-4.699,-2.463
0.201,-0.957,0.272,-2.974,-4.743,-2.118
0.200,-0.956,0.272,-2.805,-4.715,-1.822
0.200,-0.955,0.272,-2.651,-4.645,-1.545
0.199,-0.955,0.273,-2.512,-4.586,-1.317
0.198,-0.954,0.273,-2.354,-4.556,-1.122
0.197,-0.954,0.273,-2.161,-4.546,-0.960
0.196,-0.954,0.273,-1.971,-4.552,-0.826
0.196,-0.954,0.273,-1.781,-4.560,-0.736
0.195,-0.954,0.273,-1.617,-4.574,-0.666
0.195,-0.953,0.273,-1.467,-4.567,-0.646
0.194,-0.953,0.272,-1.332,-4.538,-0.676
0.194,-0.952,0.272,-1.220,-4.460,-0.747
0.193,-0.952,0.272,-1.153,-4.416,-0.771
0.193,-0.952,0.273,-1.092,-4.396,-0.773
0.193,-0.953,0.273,-0.981,-4.398,-0.775
0.193,-0.953,0.273,-0.830,-4.430,-0.773
0.193,-0.954,0.273,-0.672,-4.501,-0.749
0.193,-0.954,0.274,-0.523,-4.618,-0.708
0.193,-0.955,0.274,-0.350,-4.777,-0.663
0.193,-0.956,0.275,-0.150,-4.973,-0.622
0.193,-0.956,0.276,0.061,-5.193,-0.589
0.193,-0.957,0.277,0.240,-5.425,-0.586
0.193,-0.957,0.278,0.328,-5.668,-0.597
0.193,-0.957,0.279,0.294,-5.926,-0.582
0.192,-0.957,0.280,0.112,-6.177,-0.553
0.193,-0.957,0.281,-0.185,-6.430,-0.530

0.325,-1.211,0.348,-1.234,-8.308,1.766
0.331,-1.224,0.353,-1.857,-9.927,4.680
0.337,-1.238,0.359,-2.072,-11.105,8.423
0.343,-1.253,0.366,-1.939,-11.969,13.089
0.348,-1.269,0.374,-1.490,-12.379,18.594
0.354,-1.285,0.382,-0.678,-12.324,25.719
0.359,-1.301,0.390,0.364,-11.978,34.342
0.362,-1.315,0.398,1.530,-11.476,44.064
0.364,-1.326,0.406,2.723,-10.483,54.778
0.366,-1.335,0.413,3.997,-9.294,65.761
0.367,-1.342,0.419,5.289,-7.768,76.607
0.369,-1.346,0.425,7.017,-5.798,87.294
0.369,-1.347,0.430,8.990,-3.381,97.726
0.370,-1.345,0.434,11.262,-0.111,108.336
0.371,-1.342,0.437,13.687,3.462,117.004
0.371,-1.333,0.438,16.105,8.901,127.223
0.374,-1.326,0.436,18.861,17.711,139.739
0.373,-1.316,0.434,22.422,26.951,151.232
0.369,-1.298,0.429,25.821,36.386,161.127
0.363,-1.273,0.422,28.806,46.486,169.450
0.356,-1.244,0.412,31.042,58.808,177.297
0.350,-1.211,0.398,32.641,72.930,184.821
0.340,-1.177,0.379,33.641,87.122,191.545
0.326,-1.138,0.357,34.041,100.556,197.143
0.310,-1.097,0.331,33.827,112.544,201.505
0.290,-1.053,0.301,32.391,122.792,204.468
0.266,-1.006,0.269,29.280,130.235,205.819
0.239,-0.959,0.236,24.509,134.331,205.421
0.209,-0.911,0.204,17.752,134.897,203.142
0.177,-0.865,0.173,8.760,133.445,199.161
0.147,-0.819,0.144,-2.499,130.450,194.092
0.118,-0.776,0.116,-14.085,127.295,188.379
0.094,-0.738,0.086,-22.697,124.041,182.230
0.075,-0.705,0.059,-27.841,120.028,176.099
0.061,-0.671,0.036,-29.930,115.373,170.206
0.051,-0.639,0.016,-30.046,110.165,164.800
0.044,-0.606,-0.001,-28.757,104.770,159.869
0.041,-0.575,-0.015,-26.849,99.500,152.005
0.039,-0.544,-0.027,-23.424,94.594,138.831
0.038,-0.508,-0.037,-17.603,90.017,121.848
0.035,-0.466,-0.047,-11.575,85.463,101.558
0.027,-0.420,-0.057,-6.845,80.150,77.690
0.022,-0.372,-0.070,-3.995,73.610,50.834
0.018,-0.325,-0.084,-2.707,65.257,16.895
0.017,-0.283,-0.098,-2.503,54.850,-19.890
0.022,-0.243,-0.113,-3.262,42.412,-59.072
0.031,-0.209,-0.128,-4.826,28.724,-99.273
0.048,-0.183,-0.139,-7.046,14.740,-139.965
0.070,-0.164,-0.148,-9.392,1.746,-180.316
0.095,-0.151,-0.152,-11.012,-10.113,-221.737
0.121,-0.144,-0.153,-11.457,-20.899,-261.558
0.148,-0.142,-0.146,-10.853,-30.106,-293.765
0.173,-0.145,-0.038,-12.395,-104.490,-392.529
0.197,-0.638,-0.203,-29.924,-122.127,-378.583
0.321,-0.609,-0.208,-207.685,-62.319,-362.412
0.306,-0.771,0.066,-180.564,17.773,-331.766
0.350,-0.856,0.076,-160.741,16.651,-332.755
0.397,-0.882,0.103,-152.569,1.002,-349.982
0.391,-0.873,0.110,-146.673,-0.023,-343.167
0.360,-0.858,0.097,-144.502,6.403,-334.411
0.305,-0.894,0.092,-149.593,7.942,-318.906
0.325,-0.963,0.121,-151.500,8.544,-310.320
0.352,-1.017,0.154,-152.138,8.537,-300.215
0.349,-1.059,0.175,-154.276,5.392,-292.398
0.338,-1.091,0.185,-157.906,-5.229,-284.603
0.336,-1.123,0.189,-157.441,-14.982,-275.175
0.346,-1.155,0.186,-152.310,-16.350,-266.567
0.357,-1.178,0.182,-146.397,-16.003,-260.133
0.349,-1.183,0.175,-140.384,-16.325,-252.949
0.333,-1.179,0.174,-134.235,-15.832,-245.770
0.327,-1.171,0.174,-128.756,-13.352,-239.626
0.350,-1.174,0.171,-121.504,-10.797,-226.488
0.364,-1.178,0.169,-110.085,-7.016,-206.808
0.376,-1.173,0.174,-93.187,1.812,-183.523
0.385,-1.166,0.175,-74.085,13.273,-161.496
0.382,-1.156,0.182,-55.068,22.463,-144.978
0.361,-1.137,0.182,-41.117,26.320,-130.606
0.328,-1.114,0.184,-32.906,26.529,-118.712
0.301,-1.092,0.189,-28.280,26.000,-111.614
0.291,-1.074,0.198,-25.492,26.236,-106.531
0.290,-1.058,0.204,-23.241,26.660,-101.992
0.284,-1.045,0.209,-21.264,26.408,-97.801
0.275,-1.033,0.211,-19.433,25.656,-94.102
0.267,-1.021,0.214,-17.796,24.644,-90.829
0.262,-1.008,0.218,-16.304,23.775,-88.003
0.258,-0.995,0.221,-15.304,22.923,-85.043
0.252,-0.985,0.222,-14.839,21.768,-81.926
0.246,-0.977,0.222,-14.815,19.836,-78.669
0.240,-0.971,0.223,-15.145,17.563,-75.537
0.236,-0.964,0.224,-15.835,15.353,-72.666
0.232,-0.957,0.225,-17.102,13.367,-70.296
0.229,-0.951,0.225,-18.849,11.538,-68.262
0.226,-0.946,0.226,-20.905,9.954,-66.585
0.223,-0.942,0.226,-23.190,8.458,-65.212
0.220,-0.939,0.226,-25.644,7.063,-64.016
0.218,-0.938,0.226,-28.137,5.757,-62.894
0.217,-0.938,0.226,-30.338,4.608,-61.787
0.215,-0.939,0.225,-32.124,3.595,-60.532
0.214,-0.942,0.225,-33.416,2.788,-59.063
0.213,-0.946,0.224,-34.184,2.030,-57.550
0.212,-0.950,0.223,-34.494,1.377,-55.891
0.211,-0.954,0.222,-34.355,0.776,-54.268
0.209,-0.956,0.221,-33.889,0.221,-52.702
0.207,-0.958,0.220,-33.289,-0.251,-51.127
0.205,-0.961,0.219,-32.585,-0.610,-49.579
0.204,-0.963,0.218,-31.789,-0.896,-48.126
0.202,-0.967,0.217,-30.906,-1.116,-46.791
0.201,-0.970,0.216,-29.887,-1.267,-45.514
0.199,-0.973,0.214,-28.762,-1.345,-44.291
0.198,-0.976,0.213,-27.583,-1.341,-43.105
0.196,-0.978,0.213,-26.403,-1.307,-41.957
0.195,-0.979,0.214,-25.249,-1.258,-40.873
0.193,-0.980,0.215,-24.112,-1.213,-39.880
0.191,-0.981,0.216,-23.001,-1.183,-38.986
0.189,-0.981,0.218,-21.909,-1.171,-38.169
0.188,-0.981,0.220,-20.843,-1.176,-37.382
0.186,-0.980,0.222,-19.825,-1.211,-36.559
0.184,-0.979,0.224,-18.880,-1.299,-35.691
0.183,-0.978,0.226,-18.017,-1.410,-34.781
0.182,-0.978,0.227,-17.247,-1.500,-33.831
0.182,-0.977,0.228,-16.549,-1.524,-32.813
0.183,-0.976,0.229,-15.879,-1.337,-31.772
0.184,-0.975,0.230,-15.193,-0.965,-30.772
0.185,-0.975,0.231,-14.499,-0.439,-29.844
0.185,-0.974,0.232,-13.807,0.070,-28.971
0.184,-0.973,0.232,-13.139,0.483,-28.165
0.183,-0.972,0.233,-12.544,0.709,-27.387
0.182,-0.972,0.234,-12.025,0.732,-26.591
0.182,-0.972,0.235,-11.574,0.559,-25.797
0.182,-0.971,0.236,-11.139,0.377,-24.987
0.182,-0.970,0.237,-10.712,0.154,-24.114
0.182,-0.970,0.238,-10.326,-0.120,-23.226
0.183,-0.970,0.239,-9.976,-0.407,-22.402
0.183,-0.970,0.239,-9.637,-0.641,-21.636
0.183,-0.970,0.240,-9.306,-0.791,-20.926
0.184,-0.970,0.240,-8.996,-0.900,-20.293
0.184,-0.970,0.239,-8.729,-1.003,-19.733
0.184,-0.970,0.239,-8.540,-1.112,-19.277
0.184,-0.970,0.239,-8.395,-1.250,-18.920
0.184,-0.970,0.239,-8.288,-1.455,-18.643
0.184,-0.969,0.239,-8.217,-1.708,-18.439
0.183,-0.969,0.239,-8.178,-1.988,-18.278
0.183,-0.969,0.241,-8.114,-2.106,-18.018
0.183,-0.969,0.241,-7.994,-2.167,-17.694
0.183,-0.969,0.242,-7.852,-2.261,-17.309
0.183,-0.969,0.242,-7.685,-2.328,-16.919
0.183,-0.970,0.242,-7.489,-2.362,-16.496
0.182,-0.970,0.243,-7.300,-2.365,-16.004
0.182,-0.969,0.243,-7.137,-2.339,-15.494
0.182,-0.969,0.243,-7.018,-2.287,-14.974
0.182,-0.969,0.243,-6.926,-2.191,-14.479
0.181,-0.969,0.243,-6.856,-2.063,-14.029
0.181,-0.968,0.243,-6.811,-1.912,-13.609
0.181,-0.968,0.242,-6.782,-1.736,-13.199
0.180,-0.968,0.242,-6.744,-1.554,-12.795
0.180,-0.968,0.242,-6.690,-1.361,-12.420
0.180,-0.968,0.241,-6.624,-1.168,-12.076
0.180,-0.969,0.241,-6.548,-0.979,-11.745
0.180,-0.969,0.240,-6.466,-0.786,-11.433
0.180,-0.969,0.239,-6.376,-0.595,-11.106
0.180,-0.969,0.239,-6.256,-0.409,-10.740
0.180,-0.969,0.238,-6.153,-0.236,-10.338
0.180,-0.969,0.238,-6.063,-0.081,-9.941
0.179,-0.969,0.238,-5.949,0.053,-9.580
0.179,-0.970,0.237,-5.805,0.113,-9.178
0.178,-0.970,0.236,-5.636,0.064,-8.769
0.178,-0.970,0.236,-5.462,-0.068,-8.339
0.177,-0.970,0.235,-5.285,-0.248,-7.863
0.177,-0.970,0.235,-5.120,-0.495,-7.352
0.176,-0.969,0.235,-4.977,-0.760,-6.857
0.176,-0.969,0.235,-4.840,-1.068,-6.399
0.175,-0.969,0.234,-4.708,-1.399,-5.990
0.175,-0.969,0.234,-4.586,-1.695,-5.659
0.175,-0.969,0.234,-4.456,-1.853,-5.441
0.175,-0.968,0.234,-4.370,-1.925,-5.280
0.175,-0.968,0.234,-4.317,-1.932,-5.162
0.175,-0.968,0.235,-4.267,-1.896,-5.079
0.175,-0.968,0.235,-4.218,-1.916,-4.911
0.175,-0.970,0.235,-4.110,-1.960,-4.753
0.175,-0.971,0.235,-3.936,-2.013,-4.598
0.176,-0.972,0.235,-3.737,-2.087,-4.445
0.176,-0.972,0.235,-3.524,-2.172,-4.300
0.176,-0.972,0.236,-3.310,-2.265,-4.181
0.176,-0.973,0.236,-3.094,-2.351,-4.086
0.176,-0.973,0.236,-2.894,-2.439,-4.003
0.176,-0.973,0.236,-2.701,-2.537,-3.909
0.175,-0.973,0.237,-2.510,-2.649,-3.802
0.175,-0.973,0.237,-2.339,-2.782,-3.669
0.175,-0.973,0.238,-2.242,-2.944,-3.535
0.175,-0.973,0.238,-2.218,-3.129,-3.417
0.174,-0.973,0.238,-2.260,-3.314,-3.298
0.175,-0.974,0.238,-2.349,-3.474,-3.155
0.175,-0.974,0.238,-2.492,-3.595,-2.952
0.175,-0.975,0.237,-2.671,-3.684,-2.696
0.176,-0.975,0.236,-2.826,-3.756,-2.433
0.176,-0.976,0.236,-2.952,-3.836,-2.165
0.176,-0.977,0.236,-3.009,-3.949,-1.898
0.176,-0.978,0.236,-2.993,-4.102,-1.712
0.176,-0.979,0.237,-2.930,-4.308,-1.613

0.266,-1.270,0.333,-5.216,-5.212,-0.770
0.270,-1.276,0.334,-7.016,-5.761,1.225
0.273,-1.280,0.337,-8.579,-6.128,3.803
0.274,-1.282,0.340,-10.413,-6.393,7.354
0.276,-1.286,0.343,-12.681,-6.672,11.904
0.280,-1.292,0.345,-15.278,-6.825,17.096
0.284,-1.300,0.345,-18.062,-6.809,24.397
0.289,-1.309,0.342,-21.073,-6.620,30.601
0.292,-1.317,0.338,-23.887,-6.321,36.989
0.294,-1.324,0.333,-26.461,-5.959,43.385
0.294,-1.330,0.326,-28.582,-5.464,49.833
0.295,-1.337,0.318,-30.016,-4.857,56.552
0.295,-1.342,0.310,-30.470,-4.183,63.955
0.295,-1.347,0.301,-30.370,-3.434,71.823
0.293,-1.349,0.292,-29.777,-2.564,80.061
0.291,-1.349,0.282,-28.688,-1.506,88.579
0.287,-1.347,0.273,-27.231,-0.344,97.251
0.283,-1.341,0.265,-25.582,0.927,105.987
0.277,-1.330,0.257,-23.149,2.359,114.652
0.271,-1.315,0.250,-19.656,3.997,123.333
0.265,-1.298,0.242,-15.645,6.010,131.782
0.259,-1.277,0.234,-10.918,8.454,139.847
0.253,-1.253,0.226,-5.553,11.319,147.312
0.246,-1.225,0.218,0.179,14.849,154.085
0.238,-1.195,0.208,6.057,18.953,160.131
0.229,-1.163,0.197,11.879,23.701,165.416
0.218,-1.129,0.184,17.416,29.177,169.928
0.206,-1.092,0.168,22.658,35.194,173.658
0.193,-1.053,0.148,27.554,41.597,176.354
0.179,-1.011,0.123,32.207,48.225,178.207
0.162,-0.967,0.096,36.334,54.895,179.036
0.144,-0.923,0.065,39.877,61.271,178.769
0.124,-0.879,0.033,42.747,66.192,177.276
0.102,-0.835,0.002,44.727,69.344,174.492
0.079,-0.791,-0.026,46.365,70.722,170.592
0.056,-0.747,-0.049,48.118,70.848,165.943
0.034,-0.701,-0.066,49.245,70.163,160.822
0.014,-0.655,-0.079,49.812,69.063,155.704
-0.001,-0.613,-0.092,49.701,67.749,150.974
-0.010,-0.574,-0.107,49.125,66.308,146.086
-0.012,-0.542,-0.125,48.626,64.304,137.588
-0.010,-0.514,-0.142,48.511,61.368,124.240
-0.006,-0.485,-0.157,48.604,57.415,104.083
-0.005,-0.448,-0.171,48.452,51.780,79.434
-0.007,-0.405,-0.186,47.847,43.658,50.692
-0.011,-0.361,-0.201,46.650,31.263,17.635
-0.010,-0.321,-0.215,44.927,16.520,-19.163
-0.004,-0.286,-0.228,43.028,0.447,-60.729
0.008,-0.259,-0.238,41.166,-16.076,-102.922
0.025,-0.236,-0.245,39.639,-32.826,-144.334
0.048,-0.217,-0.248,38.395,-50.761,-184.106
0.073,-0.202,-0.249,37.525,-67.846,-221.183
0.097,-0.193,-0.249,37.039,-84.264,-257.429
0.134,-0.519,0.106,127.202,-357.724,-251.614
0.095,-0.715,-0.137,120.236,-346.922,-246.310
0.073,-0.774,0.163,-58.674,-336.790,-223.850
0.139,-0.939,0.189,13.398,-239.904,-217.647
0.219,-0.974,0.205,38.007,-232.309,-239.952
0.240,-0.926,0.256,31.404,-228.737,-244.982
0.210,-0.901,0.264,12.622,-221.750,-240.796
0.159,-0.884,0.269,-12.383,-215.602,-233.433
0.154,-0.919,0.285,-42.493,-208.965,-219.784
0.179,-0.978,0.316,-59.137,-203.453,-213.650
0.202,-1.025,0.344,-71.490,-196.925,-208.236
0.211,-1.053,0.365,-81.803,-190.726,-202.843
0.214,-1.070,0.377,-91.755,-184.921,-197.879
0.213,-1.084,0.375,-99.867,-179.261,-193.898
0.207,-1.100,0.361,-104.958,-173.760,-189.650
0.214,-1.118,0.342,-104.345,-168.777,-184.739
0.234,-1.143,0.322,-100.559,-163.815,-175.591
0.250,-1.165,0.301,-94.075,-159.142,-159.630
0.255,-1.175,0.287,-82.164,-151.143,-141.284
0.264,-1.177,0.275,-67.199,-139.333,-124.323
0.263,-1.172,0.265,-50.985,-129.389,-110.422
0.257,-1.164,0.259,-36.376,-122.665,-97.805
0.247,-1.154,0.258,-24.485,-116.784,-87.632
0.236,-1.140,0.258,-15.119,-111.281,-80.367
0.228,-1.125,0.258,-8.249,-106.043,-74.050
0.222,-1.113,0.259,-2.940,-101.420,-69.709
0.214,-1.099,0.260,1.379,-96.911,-67.268
0.207,-1.083,0.260,4.442,-92.708,-65.555
0.202,-1.068,0.260,6.442,-88.928,-63.806
0.199,-1.055,0.260,7.813,-85.339,-62.200
0.196,-1.042,0.260,8.556,-81.795,-60.641
0.195,-1.029,0.260,9.032,-78.332,-59.011
0.193,-1.017,0.260,9.164,-75.175,-57.291
0.190,-1.006,0.260,8.934,-72.600,-55.513
0.186,-0.996,0.260,8.336,-70.449,-53.733
0.183,-0.987,0.260,7.385,-68.507,-51.972
0.181,-0.983,0.260,5.989,-66.685,-49.877
0.179,-0.978,0.260,4.480,-65.014,-47.895
0.177,-0.972,0.260,2.802,-63.551,-46.037
0.175,-0.966,0.260,0.844,-62.211,-44.561
0.173,-0.961,0.259,-1.405,-60.931,-43.305
0.171,-0.957,0.258,-3.911,-59.654,-42.262
0.170,-0.954,0.257,-6.710,-58.508,-41.333
0.167,-0.952,0.254,-9.802,-57.592,-40.526
0.164,-0.951,0.252,-13.154,-56.664,-39.830
0.163,-0.951,0.250,-16.598,-55.576,-39.184
0.162,-0.951,0.247,-19.882,-54.405,-38.483
0.161,-0.953,0.245,-22.762,-53.204,-37.714
0.160,-0.957,0.242,-24.998,-52.045,-36.978
0.160,-0.961,0.239,-26.600,-50.917,-36.251
0.161,-0.965,0.235,-27.572,-49.838,-35.600
0.162,-0.969,0.232,-27.971,-48.783,-35.018
0.163,-0.972,0.228,-28.088,-47.762,-34.486
0.163,-0.976,0.225,-27.969,-46.780,-34.015
0.164,-0.980,0.222,-27.630,-45.808,-33.602
0.165,-0.983,0.220,-27.105,-44.767,-33.322
0.165,-0.985,0.217,-26.519,-43.734,-33.013
0.166,-0.988,0.215,-25.810,-42.653,-32.702
0.167,-0.990,0.213,-25.015,-41.561,-32.376
0.168,-0.992,0.212,-24.202,-40.480,-32.001
0.169,-0.994,0.210,-23.370,-39.406,-31.625
0.170,-0.995,0.209,-22.548,-38.424,-31.170
0.171,-0.996,0.208,-21.701,-37.414,-30.832
0.172,-0.996,0.207,-20.848,-36.340,-30.551
0.174,-0.995,0.207,-20.010,-34.583,-30.291
0.177,-0.993,0.207,-19.153,-32.266,-30.043
0.180,-0.992,0.207,-18.284,-29.477,-29.875
0.182,-0.992,0.207,-17.366,-26.529,-29.760
0.183,-0.991,0.208,-16.474,-23.479,-29.651
0.184,-0.990,0.207,-15.613,-20.573,-29.554
0.185,-0.990,0.207,-14.743,-18.137,-29.626
0.188,-0.989,0.206,-13.942,-15.857,-29.538
0.184,-0.987,0.205,-13.370,-14.754,-29.093
0.180,-0.987,0.203,-13.022,-14.303,-28.542
0.181,-0.986,0.203,-12.715,-13.862,-28.024
0.183,-0.985,0.203,-12.454,-13.409,-27.496
0.185,-0.985,0.203,-12.178,-12.931,-26.983
0.187,-0.985,0.203,-11.834,-12.401,-26.497
0.188,-0.985,0.203,-11.477,-11.781,-26.047
0.190,-0.985,0.203,-11.109,-11.147,-25.654
0.192,-0.985,0.203,-10.750,-10.632,-25.304
0.193,-0.985,0.203,-10.412,-10.229,-25.011
0.194,-0.985,0.202,-10.081,-9.881,-24.761
0.196,-0.985,0.203,-9.760,-9.556,-24.554
0.198,-0.984,0.203,-9.449,-9.260,-24.359
0.200,-0.984,0.203,-9.158,-8.996,-24.132
0.202,-0.984,0.203,-8.855,-8.736,-23.837
0.203,-0.983,0.204,-8.594,-8.489,-23.487
0.205,-0.982,0.204,-8.364,-8.266,-23.101
0.206,-0.982,0.205,-8.148,-8.055,-22.667
0.208,-0.982,0.206,-7.940,-7.850,-22.167
0.209,-0.981,0.206,-7.768,-7.659,-21.618
0.211,-0.981,0.207,-7.621,-7.467,-21.042
0.212,-0.981,0.207,-7.478,-6.732,-20.441
0.214,-0.980,0.207,-7.330,-6.533,-19.802
0.215,-0.980,0.208,-7.170,-6.319,-19.145
0.216,-0.980,0.208,-7.016,-6.100,-18.510
0.216,-0.979,0.208,-6.873,-5.947,-17.905
0.216,-0.979,0.208,-6.758,-5.909,-17.337
0.215,-0.978,0.208,-6.662,-6.085,-16.772
0.215,-0.977,0.208,-6.568,-6.417,-16.172
0.214,-0.976,0.209,-6.389,-6.635,-15.547
0.215,-0.975,0.210,-6.128,-6.597,-14.944
0.216,-0.974,0.211,-5.841,-6.411,-14.361
0.215,-0.973,0.211,-5.570,-6.258,-13.768
0.215,-0.973,0.212,-5.276,-6.127,-13.165
0.215,-0.973,0.213,-4.938,-6.039,-12.447
0.215,-0.973,0.213,-4.594,-5.997,-11.625
0.215,-0.973,0.214,-4.227,-6.012,-10.749
0.214,-0.973,0.215,-3.839,-6.081,-9.859
0.213,-0.973,0.215,-3.447,-6.187,-8.965
0.213,-0.973,0.216,-3.037,-6.318,-8.075
0.212,-0.972,0.216,-2.623,-6.532,-7.144
0.211,-0.972,0.217,-2.154,-6.725,-6.248
0.210,-0.971,0.217,-1.658,-7.024,-5.275
0.209,-0.970,0.218,-1.159,-7.449,-4.205
0.208,-0.968,0.219,-0.650,-7.825,-3.163
0.207,-0.966,0.221,-0.170,-8.236,-2.076
0.206,-0.965,0.222,0.284,-8.596,-1.115
0.205,-0.964,0.222,0.775,-8.920,-0.292
0.204,-0.964,0.223,1.282,-9.262,0.467
0.203,-0.963,0.224,1.819,-9.661,1.197
0.202,-0.962,0.225,2.385,-10.098,1.850
0.201,-0.962,0.226,2.959,-10.597,2.499
0.200,-0.962,0.227,3.544,-11.153,3.080
0.199,-0.962,0.228,4.156,-11.737,3.557
0.199,-0.963,0.229,4.758,-12.393,3.995
0.199,-0.963,0.230,5.355,-13.033,4.350
0.199,-0.962,0.231,5.900,-13.709,4.662
0.198,-0.961,0.233,6.353,-14.342,4.889
0.198,-0.960,0.235,6.708,-14.963,5.016
0.198,-0.961,0.236,6.984,-15.641,5.081
0.198,-0.963,0.237,7.220,-16.375,5.102
0.199,-0.964,0.238,7.423,-17.190,5.105
0.200,-0.966,0.239,7.597,-18.061,5.130
0.202,-0.967,0.239,7.729,-18.982,5.164
0.203,-0.968,0.240,7.795,-19.902,5.231
0.204,-0.969,0.240,7.794,-20.878,5.301
0.205,-0.971,0.239,7.712,-21.837,5.424
0.206,-0.972,0.238,7.630,-22.701,5.609
0.208,-0.972,0.237,7.524,-23.430,5.846
0.208,-0.972,0.236,7.334,-24.041,6.176
0.210,-0.973,0.234,7.015,-24.042,6.461
0.212,-0.972,0.232,6.616,-23.907,6.707
0.211,-0.972,0.230,5.984,-23.735,6.893
0.209,-0.973,0.228,5.152,-23.544,6.998

0.288,-1.363,0.215,1.950,-24.436,10.194
0.291,-1.367,0.214,-0.501,-25.065,14.562
0.293,-1.368,0.214,-2.128,-25.602,20.261
0.292,-1.368,0.216,-3.263,-26.133,26.942
0.290,-1.365,0.220,-4.379,-26.637,34.325
0.290,-1.362,0.223,-5.801,-27.042,42.151
0.288,-1.358,0.226,-7.556,-27.226,50.050
0.287,-1.358,0.227,-9.200,-27.384,57.806
0.285,-1.357,0.227,-10.466,-27.526,65.101
0.282,-1.356,0.223,-11.453,-27.580,72.194
0.281,-1.356,0.218,-12.153,-27.501,79.406
0.279,-1.358,0.211,-12.196,-27.283,86.775
0.277,-1.360,0.203,-11.433,-26.854,94.280
0.275,-1.360,0.196,-10.190,-26.170,101.678
0.273,-1.354,0.190,-7.589,-24.706,108.314
0.269,-1.347,0.185,-3.674,-21.978,117.117
0.265,-1.340,0.180,2.232,-18.837,126.226
0.259,-1.327,0.175,9.515,-15.398,135.098
0.252,-1.309,0.172,17.652,-11.402,143.721
0.245,-1.286,0.168,25.697,-6.660,151.900
0.237,-1.260,0.163,33.447,-0.974,159.396
0.227,-1.232,0.158,40.470,5.283,166.161
0.215,-1.200,0.152,46.834,12.231,171.890
0.202,-1.166,0.145,52.152,19.894,176.318
0.188,-1.131,0.136,56.611,28.046,178.828
0.174,-1.095,0.126,60.793,36.460,179.772
0.158,-1.059,0.115,64.323,45.108,179.311
0.142,-1.022,0.102,67.172,53.833,177.684
0.126,-0.985,0.088,69.321,62.599,175.069
0.109,-0.949,0.070,70.524,71.234,171.653
0.093,-0.914,0.048,70.721,79.452,167.714
0.076,-0.878,0.023,70.246,87.094,163.376
0.058,-0.843,-0.005,69.386,93.303,158.689
0.037,-0.809,-0.034,67.928,97.492,153.808
0.014,-0.772,-0.063,66.511,99.236,149.208
-0.009,-0.737,-0.088,65.114,98.925,144.890
-0.029,-0.704,-0.107,63.814,97.321,139.079
-0.046,-0.674,-0.120,62.477,95.347,132.033
-0.058,-0.646,-0.124,61.112,93.150,123.458
-0.064,-0.622,-0.124,60.281,90.939,111.094
-0.065,-0.600,-0.121,60.271,88.571,95.297
-0.062,-0.576,-0.120,61.905,84.159,75.639
-0.057,-0.545,-0.122,64.702,79.210,53.626
-0.056,-0.506,-0.129,66.560,72.768,29.995
-0.056,-0.466,-0.144,66.035,64.096,3.139
-0.058,-0.428,-0.163,64.325,51.729,-26.799
-0.059,-0.394,-0.183,61.069,35.145,-60.318
-0.059,-0.365,-0.201,56.243,13.756,-97.273
-0.055,-0.338,-0.215,49.587,-10.129,-135.938
-0.044,-0.302,-0.231,41.932,-33.736,-175.484
-0.025,-0.281,-0.257,35.561,-53.286,-216.872
