aX,aY,aZ,gX,gY,gZ
-0.915,-1.070,-0.410,-334.600,133.210,34.090
-0.868,-1.171,-0.527,-331.380,139.020,33.740
-0.831,-1.225,-0.611,-325.990,142.800,38.220
-0.788,-1.239,-0.654,-322.560,141.680,42.980
-0.769,-1.239,-0.703,-313.950,137.410,44.170
-0.759,-1.243,-0.717,-287.210,127.750,45.010
-0.750,-1.212,-0.760,-298.340,113.050,46.970
-0.701,-1.182,-0.828,-291.900,97.650,49.420
-0.654,-1.154,-0.874,-290.010,77.980,52.430
-0.646,-1.102,-0.963,-292.810,49.630,54.320
-0.630,-1.065,-1.054,-296.520,27.300,52.990
-0.564,-1.075,-1.240,-286.090,7.630,48.650
-0.488,-1.092,-1.344,-266.280,-14.700,45.010
-0.432,-1.134,-1.401,-227.710,-38.150,42.630
-0.358,-1.143,-1.378,-196.630,-63.700,41.580
-0.287,-1.116,-1.338,-167.090,-102.480,40.390
-0.215,-1.074,-1.327,-143.010,-137.830,38.360
-0.166,-1.034,-1.316,-123.690,-178.640,33.460
-0.132,-0.942,-1.232,-115.360,-229.600,22.330
-0.072,-0.846,-1.148,-118.020,-279.580,9.100
-0.073,-0.768,-0.987,-126.630,-333.480,-8.400
-0.122,-0.783,-0.689,-133.630,-408.170,-30.520
-0.176,-0.802,-0.533,-136.080,-457.240,-49.210
-0.218,-0.802,-0.405,-140.350,-497.280,-70.070
-0.207,-0.701,-0.345,-145.810,-529.200,-86.870
-0.170,-0.653,-0.303,-148.540,-553.700,-101.920
-0.064,-0.627,-0.213,-153.440,-565.530,-114.730
-0.020,-0.592,-0.225,-158.760,-570.990,-128.520
0.072,-0.450,-0.126,-174.510,-574.490,-123.970
0.291,-0.467,0.077,-202.790,-560.840,-111.440
0.362,-0.468,0.158,-226.520,-552.020,-118.090
0.334,-0.551,0.009,-234.080,-519.120,-133.210
0.411,-0.677,-0.080,-228.690,-485.100,-145.180
0.475,-0.695,-0.244,-211.610,-450.940,-143.780
0.513,-1.081,-0.460,-133.000,-416.990,-156.800
0.527,-1.182,-0.641,-62.090,-386.750,-154.980
0.531,-1.337,-0.698,-8.050,-344.050,-139.650
0.638,-1.375,-0.694,26.670,-337.190,-111.860
0.748,-1.174,-0.667,53.900,-321.580,-87.500
0.765,-0.949,-0.527,68.600,-305.760,-77.770
0.725,-0.772,-0.320,60.480,-281.680,-75.390
0.712,-0.812,0.024,49.000,-255.430,-69.020
0.707,-0.819,0.374,38.430,-235.550,-56.490
0.695,-0.811,0.680,27.580,-220.430,-41.230
0.692,-0.782,0.923,16.940,-202.020,-26.950
0.657,-0.819,1.130,6.510,-170.800,-16.030
0.569,-0.841,1.204,-4.830,-146.300,-6.440
0.470,-0.825,1.207,-18.480,-125.650,3.780
0.409,-0.813,1.146,-32.550,-107.100,11.340
0.377,-0.847,1.050,-45.010,-91.280,16.450
0.355,-0.880,0.942,-49.910,-75.880,19.390
0.320,-0.885,0.846,-52.080,-62.300,21.840
0.273,-0.907,0.762,-51.660,-51.660,22.890
0.233,-0.920,0.691,-47.740,-42.840,22.750
0.180,-0.931,0.630,-42.210,-34.300,22.120
0.138,-0.930,0.607,-38.990,-29.120,22.540
0.102,-0.888,0.590,-40.950,-23.660,23.940
0.072,-0.840,0.601,-46.620,-20.300,24.850
0.027,-0.847,0.596,-49.140,-18.830,20.790
-0.014,-0.910,0.579,-46.760,-17.990,17.430
-0.047,-0.923,0.580,-43.120,-17.080,14.700
-0.079,-0.944,0.567,-40.180,-15.540,11.760
-0.104,-0.954,0.553,-36.470,-15.190,8.260
-0.139,-0.972,0.519,-32.130,-15.050,4.270
-0.158,-0.987,0.490,-26.040,-14.910,0.910
-0.171,-0.999,0.456,-17.500,-15.190,-1.750
-0.179,-1.013,0.414,-3.570,-14.700,-3.640
-0.173,-0.988,0.386,3.220,-12.740,-2.380
-0.171,-0.932,0.378,6.160,-9.870,-0.700
-0.183,-0.893,0.379,7.210,-7.070,-0.910
-0.214,-0.870,0.393,6.650,-6.020,-2.100
-0.244,-0.870,0.398,4.690,-4.620,-4.620
-0.264,-0.870,0.404,2.590,-3.010,-7.140
-0.266,-0.888,0.410,-0.490,-1.120,-9.940
-0.262,-0.918,0.410,-1.610,1.330,-11.410
-0.258,-0.958,0.408,-1.050,4.060,-12.810
-0.252,-0.980,0.397,0.630,8.050,-12.390
-0.251,-1.001,0.388,3.850,10.850,-11.760
-0.251,-1.012,0.372,7.840,13.300,-11.060
-0.251,-1.015,0.358,12.810,15.190,-10.570
-0.254,-0.876,0.342,15.470,17.150,-7.980
-0.258,-0.941,0.334,14.490,19.250,-5.040
-0.264,-0.908,0.335,11.970,21.560,-3.500
-0.273,-0.890,0.333,8.890,23.380,-2.800
-0.289,-0.870,0.334,5.670,24.010,-3.150
-0.292,-0.860,0.325,2.030,24.710,-4.200
-0.289,-0.851,0.320,-1.470,25.900,-5.460
-0.285,-0.863,0.314,-4.060,27.020,-7.140
-0.286,-0.890,0.308,-5.320,27.650,-8.050
-0.285,-0.933,0.307,-4.130,27.510,-8.960
-0.283,-0.961,0.301,-1.470,27.160,-9.800
-0.284,-0.972,0.290,2.030,27.230,-10.220
-0.288,-0.977,0.285,4.830,27.160,-10.220
-0.287,-0.961,0.287,5.810,26.810,-9.590
-0.294,-0.938,0.293,6.090,26.460,-9.310
-0.299,-0.934,0.302,5.600,25.410,-9.310
-0.296,-0.935,0.313,5.670,24.220,-9.450
-0.287,-0.935,0.316,5.670,23.730,-8.960
-0.279,-0.930,0.316,5.600,23.800,-8.400
-0.275,-0.916,0.313,4.620,24.150,-7.980
-0.283,-0.910,0.305,3.640,24.150,-8.050
-0.294,-0.911,0.299,2.380,23.590,-8.540
-0.299,-0.902,0.295,0.560,22.190,-8.470
-0.308,-0.893,0.290,-0.840,21.000,-8.190
-0.310,-0.899,0.284,-1.750,19.950,-8.120
-0.314,-0.909,0.285,-2.100,19.040,-7.980
-0.318,-0.913,0.281,-0.910,18.340,-7.070
-0.328,-0.931,0.270,0.910,18.130,-7.070
-0.331,-0.927,0.274,3.080,17.570,-6.790
-0.326,-0.919,0.271,4.480,17.570,-6.650
-0.325,-0.912,0.269,6.020,18.130,-6.650
-0.333,-0.917,0.271,7.280,17.850,-6.370
-0.340,-0.923,0.268,7.700,17.290,-6.090
-0.329,-0.903,0.271,7.560,17.220,-5.250
-0.325,-0.890,0.272,6.090,17.150,-4.900
-0.323,-0.871,0.279,3.920,16.590,-4.830
-0.326,-0.874,0.285,1.330,15.610,-5.180
-0.330,-0.877,0.289,-0.770,15.260,-5.530
-0.336,-0.877,0.290,-3.360,15.330,-5.250
-0.342,-0.880,0.285,-5.040,15.610,-5.320
-0.346,-0.895,0.270,-5.390,16.030,-6.160
-0.347,-0.906,0.262,-5.600,15.470,-6.230
-0.347,-0.910,0.255,-4.690,15.330,-5.950
-0.346,-0.918,0.249,-3.360,15.610,-5.040
-0.351,-0.923,0.238,-1.680,15.610,-4.270
-0.354,-0.927,0.238,0.140,14.910,-3.640
-0.358,-0.928,0.239,1.610,13.510,-3.010
-0.361,-0.928,0.239,2.240,12.250,-2.590
-0.354,-0.920,0.248,1.540,11.270,-1.610
-0.346,-0.909,0.258,0.140,10.150,-0.350
-0.339,-0.908,0.268,-2.240,9.380,0.210
-0.336,-0.910,0.271,-3.990,8.610,1.050
-0.337,-0.915,0.278,-4.900,8.330,1.330
-0.351,-0.924,0.285,-6.020,7.770,1.610
-0.359,-0.931,0.274,-6.160,7.350,1.330
-0.356,-0.931,0.263,-6.440,7.070,0.980
-0.353,-0.933,0.251,-6.300,7.210,0.910
-0.353,-0.940,0.244,-5.810,7.140,1.260
-0.361,-0.942,0.240,-4.830,6.720,2.030
-0.363,-0.940,0.238,-3.710,5.880,3.290
-0.366,-0.929,0.228,-2.590,5.810,3.850
-0.364,-0.920,0.234,-1.820,5.740,4.480
-0.367,-0.915,0.243,-2.100,5.740,4.690
-0.369,-0.915,0.245,-2.240,5.740,4.620
-0.369,-0.916,0.244,-2.310,5.530,4.270
-0.370,-0.917,0.240,-2.380,6.300,3.290
-0.362,-0.913,0.244,-2.520,6.860,2.520
-0.360,-0.909,0.248,-2.450,6.720,2.100
-0.362,-0.913,0.248,-2.660,6.580,1.820
-0.364,-0.913,0.252,-2.310,6.300,1.680
-0.362,-0.916,0.252,-1.890,6.230,1.190
-0.361,-0.918,0.243,-0.980,6.020,0.700
-0.362,-0.917,0.239,-0.350,5.670,0.350
-0.358,-0.914,0.243,0.070,5.250,0.490
-0.355,-0.910,0.244,-0.070,4.830,0.000
-0.358,-0.912,0.241,0.770,4.970,-1.260
-0.359,-0.912,0.236,0.700,6.300,-1.260
-0.354,-0.905,0.232,1.050,3.430,-0.770
-0.357,-0.897,0.241,-0.490,5.250,-1.050
-0.343,-0.885,0.244,-1.890,5.250,0.980
-0.349,-0.898,0.241,-2.660,4.200,1.330
-0.348,-0.905,0.238,-3.640,3.780,0.490
-0.341,-0.908,0.240,-4.130,2.800,0.490
-0.336,-0.915,0.240,-4.480,1.680,0.560
-0.327,-0.920,0.240,-4.620,1.190,1.190
-0.321,-0.927,0.240,-4.060,2.030,1.890
-0.322,-0.937,0.236,-2.660,2.310,1.750
-0.316,-0.944,0.240,-1.120,2.170,1.470
-0.314,-0.949,0.245,-0.770,2.310,1.400
-0.314,-0.954,0.249,0.140,2.660,1.750
-0.312,-0.958,0.255,0.770,2.800,2.100
-0.309,-0.956,0.262,0.560,2.800,3.010
-0.301,-0.948,0.272,0.420,3.150,4.060
-0.292,-0.941,0.285,-0.630,3.150,5.390
-0.292,-0.941,0.299,-1.610,2.870,6.580
-0.296,-0.939,0.300,-2.240,3.290,7.350
-0.300,-0.937,0.296,-3.080,3.780,7.840
-0.315,-0.930,0.281,-3.430,4.830,7.630
-0.325,-0.924,0.267,-3.640,5.530,7.420
-0.334,-0.922,0.260,-3.220,6.370,6.860
-0.337,-0.923,0.251,-2.940,7.000,6.790
-0.347,-0.928,0.247,-2.240,7.350,6.370
-0.358,-0.934,0.245,-0.910,7.140,5.670
-0.365,-0.938,0.247,0.770,6.790,4.760
-0.364,-0.933,0.250,2.030,6.580,4.410
-0.358,-0.928,0.263,2.590,6.300,4.620
-0.354,-0.924,0.266,2.940,6.230,4.760
-0.350,-0.919,0.272,3.430,6.510,4.760
-0.350,-0.913,0.272,3.220,6.860,4.340
-0.346,-0.905,0.270,2.380,7.350,3.850
-0.341,-0.900,0.271,1.260,7.910,4.060
-0.339,-0.899,0.260,0.560,8.750,3.850
-0.336,-0.900,0.249,17.640,9.800,4.200
-0.335,-0.901,0.244,-0.140,10.710,4.830
-0.326,-0.900,0.239,-0.630,11.830,5.180
-0.325,-0.899,0.230,-0.420,13.160,5.390
-0.330,-0.908,0.229,0.070,13.790,5.180
-0.344,-0.916,0.233,0.840,13.790,4.060
-0.347,-0.923,0.241,1.820,13.930,3.010

-0.961,-0.658,-0.877,34.790,194.880,-35.560
-0.995,-0.552,-0.929,50.050,203.560,-31.220
-1.039,-0.529,-0.949,53.130,211.190,-30.940
-1.049,-0.516,-0.962,47.950,216.020,-27.650
-1.105,-0.496,-0.937,31.150,218.750,-24.080
-1.138,-0.500,-0.964,-1.470,212.730,-23.800
-1.027,-0.503,-0.969,-42.840,200.200,-25.900
-0.987,-0.734,-1.116,-87.570,179.760,-33.810
-0.828,-0.949,-1.322,-93.240,152.390,-34.230
-0.692,-1.069,-1.491,-93.800,117.040,-28.560
-0.509,-1.161,-1.793,-80.430,80.290,-27.090
-0.483,-1.272,-1.782,-67.060,45.010,-26.670
-0.384,-1.323,-1.897,-59.430,11.340,-25.410
-0.346,-1.359,-1.904,-51.730,-24.080,-27.300
-0.306,-1.355,-1.867,-50.470,-61.110,-31.570
-0.238,-1.342,-1.784,-52.080,-116.200,-37.240
-0.170,-1.312,-1.725,-56.700,-159.950,-42.840
-0.088,-1.302,-1.679,-59.990,-202.370,-49.000
-0.011,-1.285,-1.649,-52.780,-241.920,-50.540
0.056,-1.251,-1.545,-41.930,-294.070,-50.610
0.115,-1.210,-1.408,-26.740,-336.560,-50.470
0.168,-1.163,-1.265,-7.980,-380.870,-49.630
0.225,-1.160,-1.049,14.770,-424.690,-50.610
0.255,-1.181,-0.738,25.270,-464.030,-52.430
0.278,-1.157,-0.375,6.860,-500.710,-58.170
0.274,-1.145,-0.044,-27.020,-531.860,-70.350
0.259,-1.157,0.061,-55.440,-556.640,-81.620
0.285,-1.200,0.028,-80.710,-563.500,-87.640
0.298,-1.152,-0.083,-109.550,-570.500,-85.890
0.352,-1.053,-0.346,-135.450,-564.480,-77.770
0.493,-0.872,-0.598,-157.080,-549.360,-67.550
0.739,-0.775,-0.813,-155.960,-520.660,-61.950
0.663,-0.839,-0.848,-138.110,-486.080,-66.570
0.635,-0.998,-0.589,-113.890,-497.980,-70.140
0.741,-1.185,-0.265,-86.940,-503.300,-66.640
0.800,-1.496,-0.251,-46.410,-501.760,-46.690
0.877,-1.511,-0.178,-10.360,-496.510,-21.210
0.982,-1.553,-0.098,19.880,-482.720,6.720
1.017,-1.504,-0.048,42.910,-454.090,35.140
1.034,-1.295,0.065,58.590,-430.430,60.760
0.956,-1.056,0.219,63.490,-410.760,77.280
0.856,-0.804,0.363,55.160,-390.530,83.790
0.750,-0.555,0.589,32.550,-370.720,83.090
0.671,-0.425,0.781,-20.230,-349.510,73.360
0.670,-0.487,0.843,-56.140,-325.220,63.490
0.699,-0.623,0.841,-76.510,-301.280,53.970
0.722,-0.772,0.864,-85.610,-279.090,49.280
0.753,-0.861,0.898,-88.830,-248.010,49.910
0.797,-0.912,0.935,-89.950,-221.060,52.710
0.798,-0.930,0.977,-90.370,-195.440,54.950
0.766,-0.957,1.002,-87.990,-171.360,54.530
0.709,-0.989,1.017,-82.670,-149.240,52.920
0.645,-1.001,1.011,-72.870,-128.310,51.590
0.579,-0.966,1.012,-58.520,-111.650,53.690
0.516,-0.935,1.015,-46.970,-99.120,54.950
0.456,-0.918,1.015,-36.470,-88.410,54.040
0.416,-0.884,1.013,-30.030,-74.830,52.220
0.365,-0.847,1.017,-26.040,-65.380,49.840
0.314,-0.833,1.020,-25.480,-56.700,46.900
0.268,-0.797,1.025,-27.790,-48.720,43.820
0.222,-0.790,1.006,-30.940,-41.580,38.150
0.180,-0.771,0.982,-40.880,-34.090,35.280
0.151,-0.733,0.952,-47.040,-26.460,32.130
0.110,-0.756,0.881,-49.420,-18.550,27.300
0.073,-0.771,0.811,-47.880,-11.690,22.050
0.044,-0.782,0.740,-44.240,-4.900,17.570
0.014,-0.789,0.650,-38.430,4.130,13.650
-0.013,-0.812,0.612,-31.570,10.290,9.660
-0.046,-0.848,0.555,-25.060,22.960,4.620
-0.025,-0.898,0.514,-14.910,63.700,-18.270
0.003,-0.857,0.549,-11.900,56.350,-17.430
-0.143,-0.896,0.532,-10.570,52.360,-13.230
-0.156,-0.886,0.505,-10.500,55.090,-10.290
-0.134,-0.898,0.466,-8.120,64.190,-9.520
-0.122,-0.915,0.445,-3.150,70.560,-11.480
-0.166,-0.917,0.439,2.800,73.430,-14.700
-0.210,-0.918,0.431,8.540,74.480,-17.150
-0.236,-0.918,0.421,12.880,74.200,-17.710
-0.251,-0.918,0.398,15.750,72.940,-17.430
-0.252,-0.936,0.346,22.610,71.540,-17.990
-0.258,-0.950,0.296,28.420,70.350,-19.460
-0.271,-0.938,0.273,32.270,69.930,-20.020
-0.287,-0.920,0.255,31.290,69.720,-19.390
-0.294,-0.898,0.272,27.230,68.180,-18.060
-0.297,-0.893,0.299,21.560,65.100,-17.570
-0.295,-0.894,0.320,16.520,60.060,-18.830
-0.293,-0.900,0.337,11.830,56.630,-22.260
-0.291,-0.897,0.336,8.120,55.230,-25.690
-0.280,-0.892,0.330,4.760,57.820,-28.630
-0.267,-0.889,0.316,3.360,64.470,-31.080
-0.262,-0.901,0.309,2.660,70.840,-33.180
-0.276,-0.925,0.293,3.220,75.040,-35.070
-0.296,-0.950,0.273,5.110,77.000,-36.750
-0.315,-0.966,0.249,8.120,76.230,-37.310
-0.334,-0.980,0.222,10.570,73.710,-37.240
-0.343,-0.988,0.211,12.040,69.160,-35.980
-0.341,-0.985,0.219,14.420,65.660,-34.720
-0.353,-0.993,0.225,16.730,61.950,-33.880
-0.363,-1.000,0.232,19.040,58.660,-33.180
-0.369,-0.995,0.236,20.300,56.490,-31.920
-0.372,-0.980,0.242,19.390,54.740,-29.540
-0.375,-0.963,0.252,17.850,52.780,-27.860
-0.380,-0.965,0.253,16.590,49.840,-27.020
-0.386,-0.969,0.262,16.170,46.130,-26.600
-0.384,-0.981,0.259,16.240,42.630,-25.620
-0.355,-0.982,0.245,15.610,39.970,-23.590
-0.328,-0.975,0.231,14.140,39.620,-19.950
-0.311,-0.967,0.216,13.720,39.200,-16.380
-0.305,-0.962,0.208,12.250,38.360,-13.790
-0.300,-0.948,0.208,10.430,37.310,-11.690
-0.296,-0.928,0.206,6.300,36.470,-8.680
-0.298,-0.921,0.205,3.150,36.120,-6.510
-0.300,-0.915,0.212,-0.070,35.280,-4.690
-0.303,-0.915,0.217,-2.590,34.020,-3.780
-0.306,-0.919,0.224,-4.690,32.130,-3.500
-0.311,-0.926,0.229,-6.370,30.450,-3.150
-0.322,-0.935,0.236,-7.350,28.350,-3.150
-0.332,-0.949,0.247,-7.140,25.690,-3.290
-0.339,-0.958,0.248,-4.760,22.820,-3.360
-0.338,-0.965,0.255,-2.170,20.090,-2.870
-0.327,-0.969,0.261,-0.490,18.200,-1.260
-0.323,-0.971,0.258,1.400,17.780,0.630
-0.323,-0.969,0.250,3.080,17.780,2.310
-0.331,-0.953,0.248,3.220,17.990,3.920
-0.340,-0.930,0.248,3.290,17.570,5.180
-0.347,-0.918,0.246,2.730,16.450,5.810
-0.348,-0.904,0.260,1.120,15.260,6.790
-0.349,-0.897,0.280,-1.190,13.790,8.190
-0.357,-0.900,0.297,-4.270,11.900,10.360
-0.363,-0.915,0.304,-6.440,10.290,12.040
-0.368,-0.923,0.304,-6.440,9.100,13.650
-0.378,-0.927,0.302,-6.370,8.400,15.190
-0.382,-0.919,0.301,-7.280,8.120,17.150
-0.389,-0.907,0.307,-8.890,7.630,19.040
-0.387,-0.905,0.290,-10.990,7.630,21.140
-0.389,-0.900,0.271,-13.300,8.330,23.450
-0.397,-0.898,0.253,-13.860,9.310,25.060
-0.406,-0.904,0.253,-13.090,9.450,26.530
-0.413,-0.900,0.268,-12.180,9.450,28.980
-0.421,-0.893,0.298,-11.620,8.890,31.080
-0.427,-0.886,0.314,-11.620,9.100,32.550
-0.435,-0.878,0.325,-11.760,9.310,34.160
-0.450,-0.862,0.334,-12.250,10.290,34.510
-0.453,-0.842,0.339,-13.510,10.710,34.370
-0.455,-0.829,0.332,-15.260,11.200,33.880
-0.457,-0.831,0.325,-17.360,11.200,33.740
-0.462,-0.833,0.318,-19.390,11.130,34.440
-0.462,-0.838,0.304,-19.600,11.690,34.090
-0.456,-0.842,0.292,-19.530,12.810,33.320
-0.444,-0.840,0.295,-20.440,14.560,33.950
-0.436,-0.846,0.273,-19.180,16.800,35.490
-0.437,-0.855,0.264,-15.400,17.920,36.400
-0.468,-0.864,0.272,-11.060,19.460,35.280
-0.499,-0.868,0.280,-6.370,20.650,33.460
-0.500,-0.854,0.294,-2.450,21.350,32.550
-0.495,-0.850,0.305,1.050,23.310,31.010
-0.493,-0.836,0.313,4.060,25.270,27.440
-0.500,-0.823,0.318,5.810,26.460,21.910
-0.508,-0.808,0.321,5.810,28.210,17.570
-0.495,-0.793,0.329,5.460,30.940,14.280
-0.480,-0.787,0.333,5.530,32.970,11.550
-0.479,-0.786,0.327,6.020,35.420,8.470
-0.485,-0.784,0.318,6.510,37.730,7.350
-0.486,-0.786,0.304,7.350,40.320,7.840
-0.494,-0.782,0.287,9.240,42.700,9.030
-0.502,-0.780,0.277,10.920,44.660,9.730
-0.504,-0.780,0.277,13.090,46.340,9.170
-0.503,-0.783,0.271,16.310,49.000,6.650
-0.502,-0.776,0.266,19.180,52.150,2.870
-0.508,-0.774,0.268,21.350,55.160,-1.540
-0.508,-0.774,0.274,22.400,57.260,-6.370
-0.491,-0.766,0.288,22.260,58.030,-7.770
-0.468,-0.765,0.286,22.190,58.660,-8.050
-0.452,-0.764,0.287,21.980,59.430,-8.400
-0.445,-0.766,0.291,21.350,59.920,-8.120
-0.454,-0.770,0.279,21.350,60.550,-8.120
-0.477,-0.769,0.265,21.560,61.110,-8.890
-0.507,-0.768,0.253,20.790,61.740,-10.010
-0.524,-0.764,0.241,19.530,62.090,-10.780
-0.527,-0.768,0.215,19.180,61.950,-10.640
-0.514,-0.779,0.181,20.720,62.300,-10.080
-0.488,-0.788,0.157,23.660,63.140,-8.400
-0.459,-0.785,0.149,25.970,64.190,-5.460
-0.445,-0.785,0.157,27.300,65.380,-2.660
-0.438,-0.782,0.168,27.930,66.920,-1.050
-0.453,-0.771,0.173,27.510,68.320,-0.840
-0.485,-0.761,0.168,25.830,70.000,-1.820
-0.517,-0.751,0.162,22.820,71.400,-3.570
-0.553,-0.732,0.156,17.780,71.890,-7.280
-0.581,-0.726,0.146,13.720,70.560,-8.750
-0.599,-0.734,0.133,10.360,69.510,-9.870
-0.590,-0.750,0.120,7.840,68.320,-10.010
-0.577,-0.771,0.112,5.810,67.970,-10.780
-0.525,-0.796,0.108,3.500,66.430,-11.270
-0.470,-0.813,0.108,1.260,63.280,-10.010
-0.407,-0.832,0.099,-0.420,61.880,-7.140
-0.361,-0.858,0.085,-0.070,63.770,-0.490
-0.361,-0.894,0.080,2.310,67.550,4.200
-0.389,-0.919,0.098,4.340,71.120,6.020

-1.016,-0.502,-0.807,123.550,231.770,56.910
-1.033,-0.430,-0.862,137.130,233.870,60.550
-1.065,-0.287,-0.962,126.700,235.550,62.790
-1.071,-0.198,-1.051,103.600,237.300,61.950
-1.073,-0.112,-1.163,69.440,240.380,60.410
-1.115,-0.090,-1.267,27.160,241.430,58.730
-1.169,-0.059,-1.480,-16.590,241.010,55.370
-1.173,-0.070,-1.565,-57.890,241.570,49.490
-1.128,-0.115,-1.651,-89.880,241.430,44.450
-1.082,-0.273,-1.713,-99.540,223.860,33.180
-0.977,-0.501,-1.809,-89.810,195.020,26.600
-0.891,-0.606,-1.940,-73.850,160.300,22.120
-0.800,-0.670,-1.920,-59.990,103.250,12.460
-0.572,-0.700,-2.115,-57.470,56.630,-1.190
-0.516,-0.761,-2.177,-57.400,10.780,-18.340
-0.434,-0.850,-2.196,-60.760,-35.000,-41.720
-0.369,-0.765,-2.210,-80.990,-78.610,-61.040
-0.285,-0.700,-2.205,-99.190,-120.400,-83.090
-0.194,-0.667,-2.201,-115.290,-178.640,-103.390
-0.064,-0.636,-2.217,-125.720,-223.160,-120.470
0.024,-0.590,-2.199,-124.600,-265.930,-138.040
0.068,-0.518,-2.019,-116.900,-312.270,-150.290
0.082,-0.612,-1.731,-105.420,-360.920,-162.400
0.077,-0.720,-1.294,-96.530,-420.070,-170.380
0.064,-0.757,-0.996,-94.080,-456.680,-176.960
0.044,-0.784,-0.763,-98.210,-483.910,-188.580
0.039,-0.730,-0.569,-123.270,-502.880,-203.280
0.043,-0.653,-0.534,-151.690,-515.970,-213.570
0.093,-0.549,-0.582,-179.830,-523.950,-220.290
0.207,-0.511,-0.880,-197.960,-518.490,-230.860
0.302,-0.475,-1.155,-203.280,-507.290,-237.580
0.476,-0.584,-1.050,-188.020,-503.300,-245.490
0.644,-0.956,-0.596,-196.560,-501.340,-247.660
0.771,-1.284,-0.241,-210.490,-477.820,-239.470
0.876,-1.450,-0.641,-186.620,-448.700,-221.970
0.915,-1.650,-0.707,-123.270,-418.670,-194.390
1.085,-1.912,-0.644,-55.580,-375.480,-158.900
1.191,-1.775,-0.443,17.360,-339.710,-103.740
1.108,-1.415,-0.226,51.310,-314.370,-70.070
0.947,-1.019,-0.049,66.150,-293.860,-48.930
0.679,-0.732,0.100,63.420,-267.260,-41.580
0.487,-0.527,0.267,44.870,-250.670,-45.150
0.348,-0.499,0.453,10.990,-238.630,-60.340
0.305,-0.681,0.583,-28.700,-230.440,-77.280
0.382,-0.903,0.621,-53.690,-222.810,-85.610
0.537,-1.274,0.662,-59.990,-210.910,-79.940
0.695,-1.501,0.741,-58.380,-191.450,-63.770
0.807,-1.572,0.782,-48.580,-167.090,-45.150
0.821,-1.488,0.793,-37.800,-133.560,-28.140
0.731,-1.262,0.798,-34.440,-111.230,-17.430
0.610,-1.016,0.784,-41.860,-94.220,-13.230
0.490,-0.823,0.727,-55.580,-82.390,-15.750
0.389,-0.738,0.667,-65.030,-75.180,-20.720
0.311,-0.771,0.597,-71.960,-70.420,-24.360
0.271,-0.827,0.558,-71.820,-67.130,-26.110
0.249,-0.914,0.518,-65.940,-66.430,-26.600
0.245,-1.017,0.536,-57.050,-65.380,-26.250
0.249,-1.106,0.564,-47.250,-63.560,-24.500
0.248,-1.154,0.583,-36.680,-57.120,-20.860
0.273,-1.159,0.585,-24.500,-41.650,-15.610
0.250,-1.113,0.599,-15.540,-35.560,-10.500
0.168,-1.088,0.567,-5.530,-29.890,-14.630
0.153,-1.056,0.550,-0.210,-8.960,-28.140
0.096,-0.977,0.523,-5.600,-21.980,-26.320
0.014,-0.973,0.469,-12.880,-26.390,-19.810
-0.001,-0.980,0.408,-17.010,-25.970,-14.070
-0.024,-0.993,0.360,-18.340,-24.640,-14.630
-0.037,-0.984,0.317,-15.190,-23.170,-15.820
-0.053,-0.997,0.286,-10.780,-20.930,-15.750
-0.100,-1.025,0.282,-6.930,-20.020,-14.280
-0.136,-1.055,0.275,-3.640,-20.160,-11.900
-0.156,-1.070,0.262,1.190,-18.900,-9.170
-0.165,-1.070,0.264,4.480,-16.940,-7.280
-0.174,-1.064,0.275,6.160,-15.470,-5.250
-0.188,-1.056,0.290,6.580,-13.860,-3.710
-0.211,-1.047,0.289,4.830,-12.530,-2.030
-0.225,-1.039,0.264,2.240,-11.270,0.280
-0.237,-1.026,0.241,-0.980,-9.730,2.730
-0.262,-0.878,0.220,-4.480,-7.980,4.690
-0.284,-0.997,0.192,-5.040,-5.880,5.530
-0.316,-0.990,0.169,-4.270,-3.360,5.530
-0.327,-0.995,0.152,-3.010,-0.560,4.130
-0.332,-0.988,0.125,-1.330,3.920,1.680
-0.327,-0.998,0.108,0.210,7.910,0.140
-0.311,-1.008,0.110,0.840,10.430,0.350
-0.302,-1.011,0.110,1.960,12.950,0.420
-0.298,-1.012,0.117,1.120,15.470,0.910
-0.307,-0.986,0.127,-1.050,17.080,0.700
-0.321,-0.979,0.127,-2.310,17.500,-2.380
-0.326,-0.996,0.126,-3.010,17.010,-4.970
-0.324,-1.000,0.123,-2.520,16.310,-6.300
-0.320,-1.007,0.118,-1.540,15.540,-7.280
-0.318,-1.005,0.118,0.070,14.700,-8.050
-0.323,-1.007,0.121,2.100,13.510,-8.400
-0.325,-1.010,0.117,5.390,11.830,-8.260
-0.329,-1.009,0.110,10.360,10.640,-6.510
-0.325,-0.996,0.095,13.790,10.290,-4.830
-0.323,-0.977,0.087,14.700,10.360,-2.730
-0.318,-0.959,0.076,13.440,10.780,-1.260
-0.317,-0.938,0.075,10.010,11.410,0.000
-0.321,-0.919,0.078,6.230,11.550,0.280
-0.326,-0.917,0.080,2.800,11.620,-0.280
-0.331,-0.919,0.083,0.910,11.410,-0.910
-0.336,-0.932,0.084,0.070,11.130,-1.120
-0.339,-0.947,0.084,0.560,10.990,-1.120
-0.339,-0.963,0.086,1.750,10.500,-0.840
-0.340,-0.970,0.084,3.080,9.800,-0.840
-0.338,-0.966,0.086,3.990,9.170,-0.350
-0.332,-0.963,0.091,4.130,8.750,0.140
-0.325,-0.965,0.087,4.060,8.330,0.840
-0.322,-0.967,0.085,3.780,7.910,1.190
-0.317,-0.966,0.087,3.290,7.490,1.470
-0.316,-0.956,0.085,2.380,7.070,2.170
-0.317,-0.938,0.086,1.330,6.650,2.520
-0.317,-0.934,0.089,0.420,6.230,2.590
-0.324,-0.937,0.085,-0.420,5.880,2.590
-0.336,-0.943,0.084,-0.070,5.810,2.870
-0.339,-0.949,0.083,0.210,5.810,3.570
-0.340,-0.951,0.081,0.140,5.950,4.340
-0.338,-0.951,0.084,0.280,6.020,4.760
-0.334,-0.946,0.080,0.700,5.740,4.620
-0.330,-0.943,0.081,0.770,5.670,4.690
-0.331,-0.945,0.087,-0.280,5.530,4.410
-0.328,-0.946,0.092,-1.330,5.320,4.060
-0.328,-0.948,0.090,-1.750,4.900,4.200
-0.330,-0.956,0.085,-1.610,4.060,4.480
-0.337,-0.955,0.083,-0.840,3.290,4.130
-0.345,-0.946,0.084,0.490,3.080,3.570
-0.347,-0.947,0.080,1.470,2.800,4.130
-0.351,-0.957,0.086,2.240,3.290,4.690
-0.352,-0.952,0.086,1.610,3.430,4.970
-0.353,-0.927,0.094,-0.210,3.640,5.180
-0.359,-0.919,0.097,-2.030,3.710,4.830
-0.367,-0.931,0.102,-3.500,4.340,4.480
-0.368,-0.939,0.101,-3.920,4.550,5.040
-0.370,-0.943,0.092,-3.430,5.110,5.180
-0.369,-0.935,0.087,-2.870,5.740,4.970
-0.373,-0.925,0.086,-3.080,6.650,3.850
-0.375,-0.921,0.087,-3.010,7.350,3.080
-0.375,-0.930,0.086,-2.240,7.700,2.520
-0.381,-0.941,0.089,-0.910,7.350,2.380
-0.382,-0.946,0.082,0.000,7.000,2.240
-0.377,-0.942,0.080,-0.140,7.630,2.520
-0.366,-0.936,0.081,-1.260,7.700,2.520
-0.355,-0.928,0.080,-1.750,7.700,2.730
-0.346,-0.927,0.085,-1.890,7.910,3.080
-0.351,-0.933,0.082,-1.470,7.980,3.640
-0.360,-0.933,0.080,-0.560,7.840,4.060
-0.369,-0.924,0.077,0.070,7.770,3.850
-0.376,-0.917,0.070,-0.210,7.770,3.080
-0.381,-0.913,0.068,-0.630,7.630,1.680
-0.387,-0.920,0.066,-0.350,7.070,0.420
-0.391,-0.932,0.066,1.330,6.510,-0.280
-0.390,-0.937,0.067,2.520,5.950,-0.700
-0.387,-0.937,0.070,3.360,5.600,-0.770
-0.389,-0.934,0.069,3.360,4.830,-0.560
-0.389,-0.926,0.064,3.010,4.620,-0.630
-0.385,-0.918,0.058,2.450,4.620,-1.190
-0.376,-0.915,0.047,2.170,4.830,-1.540
-0.370,-0.916,0.043,1.960,5.390,-1.470
-0.365,-0.920,0.045,1.540,5.670,-1.610
-0.365,-0.926,0.051,1.470,5.880,-2.030
-0.364,-0.931,0.056,1.960,5.670,-1.960
-0.363,-0.932,0.061,1.750,5.320,-1.750
-0.361,-0.932,0.069,1.050,4.270,-1.540
-0.359,-0.935,0.071,0.630,2.660,-1.750
-0.361,-0.931,0.070,0.840,1.750,-2.240
-0.364,-0.932,0.069,0.630,0.770,-2.310
-0.364,-0.925,0.067,0.210,0.000,-2.100
-0.356,-0.923,0.068,-0.490,-0.350,-2.450
-0.357,-0.920,0.056,-1.540,-0.280,-1.890
-0.357,-0.925,0.047,-1.470,0.210,-1.050
-0.353,-0.929,0.043,-1.050,0.700,0.140
-0.353,-0.932,0.050,-0.700,1.260,0.280
-0.356,-0.928,0.061,-0.490,1.540,0.350
-0.361,-0.927,0.074,-0.210,1.400,0.350
-0.365,-0.935,0.083,-0.280,1.190,-0.070
-0.368,-0.944,0.088,0.700,0.980,-0.280
-0.366,-0.945,0.085,1.190,0.700,-0.560
-0.367,-0.940,0.088,0.280,0.560,-0.770
-0.369,-0.937,0.092,-1.050,-0.140,-1.120
-0.366,-0.935,0.086,-1.890,-1.330,-1.540
-0.366,-0.940,0.088,-2.030,-1.820,-1.960
-0.362,-0.946,0.088,-2.380,-2.170,-1.400
-0.359,-0.951,0.086,-2.240,-2.100,-0.980
-0.358,-0.946,0.079,-2.310,-2.100,-0.560
-0.352,-0.944,0.068,-2.240,-1.680,-0.070
-0.348,-0.943,0.064,-1.260,-1.050,0.350
-0.351,-0.943,0.070,-0.420,-0.840,0.980
-0.351,-0.948,0.081,-0.630,-0.560,1.610
-0.351,-0.950,0.087,-0.840,-0.140,1.540
-0.349,-0.945,0.097,-1.470,0.000,1.820
-0.345,-0.945,0.099,-2.030,0.280,2.240
-0.346,-0.946,0.103,-2.730,0.490,2.170
-0.344,-0.942,0.101,-3.360,0.700,1.960
-0.347,-0.933,0.099,-4.060,0.700,1.680
-0.348,-0.935,0.095,-4.970,0.210,1.330
-0.345,-0.943,0.089,-5.320,0.140,0.910
-0.339,-0.953,0.088,-4.900,0.280,1.050

-1.040,-0.689,-0.591,125.510,203.980,21.630
-1.043,-0.664,-0.596,122.640,201.880,21.070
-1.077,-0.666,-0.603,115.360,196.630,17.710
-1.093,-0.683,-0.613,112.210,193.130,14.350
-1.043,-0.689,-0.620,109.130,190.750,12.810
-1.018,-0.680,-0.593,105.700,188.090,13.300
-0.877,-0.688,-0.568,103.740,182.840,14.000
-1.029,-0.710,-0.535,101.920,179.480,14.210
-1.033,-0.716,-0.516,99.610,174.300,16.100
-1.051,-0.707,-0.493,97.230,166.390,17.220
-1.073,-0.707,-0.468,94.360,157.220,17.780
-1.073,-0.708,-0.456,88.410,147.560,18.900
-1.074,-0.704,-0.474,79.520,137.900,21.140
-1.066,-0.712,-0.581,73.360,132.160,23.870
-1.052,-0.760,-0.639,70.490,129.500,24.640
-1.085,-0.794,-0.641,70.630,127.050,25.550
-1.037,-0.817,-0.638,72.660,124.320,29.680
-1.057,-0.793,-0.622,75.950,120.610,35.350
-1.056,-0.742,-0.593,77.070,116.620,38.850
-1.053,-0.712,-0.561,77.070,111.300,41.370
-1.054,-0.687,-0.517,75.180,104.930,42.630
-1.043,-0.668,-0.464,72.310,95.410,43.260
-1.047,-0.647,-0.447,68.670,88.060,43.680
-1.028,-0.634,-0.432,65.170,81.130,44.520
-1.060,-0.618,-0.435,53.060,74.200,44.520
-1.071,-0.542,-0.494,40.810,69.370,45.640
-1.080,-0.507,-0.535,30.030,67.340,43.820
-1.076,-0.485,-0.646,22.540,68.880,42.000
-1.088,-0.526,-0.695,23.940,71.890,37.030
-1.094,-0.595,-0.786,33.810,75.530,33.390
-1.111,-0.618,-0.840,50.050,77.630,34.370
-1.152,-0.623,-0.876,68.670,78.610,36.470
-1.107,-0.630,-0.886,81.620,79.870,40.250
-1.149,-0.568,-0.905,87.360,78.890,43.610
-1.160,-0.489,-0.921,81.060,77.770,44.590
-1.136,-0.427,-0.968,67.060,75.810,44.660
-1.101,-0.361,-1.015,43.820,72.450,44.520
-1.075,-0.299,-1.098,8.750,64.610,43.540
-1.078,-0.251,-1.185,-31.220,57.540,39.970
-1.080,-0.264,-1.317,-64.260,52.360,32.970
-1.034,-0.334,-1.387,-81.410,45.570,25.270
-0.989,-0.604,-1.511,-71.540,35.630,16.940
-0.961,-0.634,-1.503,-57.960,20.020,16.940
-0.922,-0.742,-1.540,-40.740,3.780,16.730
-0.826,-0.731,-1.558,-21.840,-16.170,19.320
-0.749,-0.696,-1.571,-10.150,-32.480,21.140
-0.737,-0.621,-1.652,-6.720,-47.460,21.280
-0.745,-0.550,-1.778,-11.130,-61.740,17.570
-0.743,-0.452,-1.843,-36.330,-79.030,9.660
-0.722,-0.445,-1.808,-63.560,-101.710,-4.270
-0.657,-0.521,-1.521,-89.320,-153.440,-23.590
-0.556,-0.712,-1.419,-101.780,-216.300,-48.790
-0.500,-0.933,-1.337,-97.720,-291.340,-73.710
-0.423,-1.121,-1.405,-76.020,-356.790,-97.300
-0.318,-1.088,-1.453,-66.920,-405.510,-105.280
-0.226,-1.032,-1.296,-68.180,-449.890,-113.190
-0.073,-1.015,-1.088,-74.480,-477.680,-122.990
-0.016,-0.948,-0.816,-90.720,-502.040,-132.440
0.044,-0.804,-0.602,-115.220,-519.890,-140.700
0.051,-0.725,-0.456,-141.260,-533.470,-151.550
0.147,-0.635,-0.403,-152.320,-540.260,-159.040
0.259,-0.588,-0.545,-166.250,-525.910,-165.900
0.552,-0.549,-0.725,-156.380,-497.630,-166.740
0.500,-0.680,-0.801,-133.770,-473.340,-164.220
0.472,-0.811,-0.792,-110.390,-454.020,-158.970
0.555,-1.015,-0.668,-93.940,-441.560,-157.990
0.722,-1.170,-0.828,-69.160,-428.750,-150.360
0.911,-1.377,-0.776,-27.790,-417.620,-139.020
1.078,-1.830,-0.621,19.320,-397.740,-109.690
1.255,-1.832,-0.378,44.800,-373.800,-69.790
1.337,-1.613,-0.156,58.100,-345.870,-23.940
1.318,-1.180,0.048,60.620,-315.910,14.070
1.188,-0.784,0.380,46.270,-279.650,36.190
1.048,-0.529,0.618,12.600,-254.380,47.110
0.935,-0.409,0.747,-27.650,-231.000,49.630
0.840,-0.461,0.834,-62.650,-209.370,45.850
0.768,-0.603,0.868,-88.480,-189.420,39.130
0.709,-0.831,0.913,-103.740,-172.690,35.490
0.657,-1.036,0.948,-102.620,-159.390,31.290
0.630,-1.189,0.959,-96.600,-147.140,29.540
0.618,-1.239,0.972,-90.160,-136.290,30.520
0.590,-1.256,0.887,-83.300,-122.500,32.550
0.568,-1.227,0.802,-76.090,-114.380,36.050
0.544,-1.136,0.749,-72.380,-107.030,42.070
0.510,-1.028,0.736,-71.190,-100.310,47.040
0.463,-0.958,0.741,-71.680,-94.780,50.260
0.405,-0.856,0.735,-68.600,-89.740,49.210
0.341,-0.824,0.728,-66.920,-84.700,45.220
0.288,-0.834,0.730,-65.100,-80.710,38.920
0.239,-0.877,0.732,-62.510,-78.120,31.430
0.191,-0.924,0.701,-58.380,-75.810,24.780
0.171,-0.973,0.671,-52.850,-73.430,19.180
0.163,-1.015,0.653,-45.920,-70.630,14.700
0.152,-1.032,0.634,-37.450,-66.360,11.480
0.134,-1.057,0.616,-25.130,-60.620,8.330
0.100,-1.067,0.582,-13.930,-55.090,4.760
0.069,-1.095,0.442,3.850,-5.040,-24.360
0.179,-0.977,0.508,9.590,-12.250,-19.250
-0.001,-0.963,0.471,14.980,-23.170,-12.880
-0.031,-0.915,0.442,18.060,-21.770,-6.370
-0.045,-0.865,0.445,20.300,-17.430,-5.600
-0.063,-0.805,0.466,19.810,-14.840,-4.830
-0.084,-0.773,0.499,16.030,-14.070,-1.330
-0.122,-0.783,0.514,7.980,-14.700,0.350
-0.153,-0.815,0.517,2.030,-15.820,2.940
-0.181,-0.858,0.500,-3.150,-16.940,3.920
-0.206,-0.899,0.481,-6.650,-17.360,4.410
-0.224,-0.942,0.455,-8.190,-15.050,5.110
-0.217,-0.974,0.420,-8.470,-12.600,7.980
-0.220,-0.985,0.388,-6.930,-9.870,10.290
-0.224,-0.981,0.352,-3.010,-6.580,11.340
-0.222,-0.955,0.343,-1.050,-2.660,10.500
-0.220,-0.926,0.343,0.840,0.210,9.030
-0.233,-0.918,0.348,1.190,2.590,8.400
-0.245,-0.903,0.369,0.280,2.310,8.400
-0.251,-0.889,0.377,-1.330,0.210,7.070
-0.250,-0.877,0.387,-2.940,-1.400,4.900
-0.244,-0.870,0.395,-5.250,-1.120,1.610
-0.240,-0.874,0.399,-6.720,1.050,-2.660
-0.232,-0.898,0.400,-7.490,4.340,-6.860
-0.229,-0.930,0.397,-4.620,7.560,-10.640
-0.240,-0.957,0.396,-1.610,10.010,-12.810
-0.250,-0.978,0.399,0.210,11.270,-13.790
-0.259,-0.984,0.368,0.630,13.860,-13.650
-0.256,-0.982,0.352,1.610,15.820,-12.740
-0.253,-0.989,0.336,2.590,17.640,-11.340
-0.251,-0.978,0.316,3.220,20.510,-9.590
-0.252,-0.966,0.299,3.850,23.870,-7.700
-0.254,-0.949,0.289,4.970,25.830,-6.300
-0.263,-0.941,0.279,7.000,26.950,-5.880
-0.283,-0.940,0.280,8.540,27.160,-6.440
-0.295,-0.920,0.310,9.170,26.180,-6.160
-0.297,-0.898,0.336,8.750,24.150,-5.390
-0.300,-0.899,0.360,7.490,22.050,-5.040
-0.299,-0.914,0.362,6.020,21.210,-4.480
-0.298,-0.935,0.359,6.230,20.090,-3.850
-0.304,-0.955,0.347,7.000,18.970,-3.010
-0.309,-0.956,0.341,7.910,18.060,-1.190
-0.307,-0.930,0.331,6.860,17.640,0.350
-0.310,-0.914,0.314,5.040,18.270,0.980
-0.320,-0.910,0.285,3.080,19.040,0.840
-0.324,-0.918,0.258,2.310,19.250,-0.630
-0.320,-0.924,0.229,2.380,19.810,-1.890
-0.314,-0.921,0.207,3.850,20.720,-1.890
-0.322,-0.911,0.233,5.530,19.670,-1.470
-0.337,-0.902,0.279,6.230,17.360,-0.280
-0.349,-0.887,0.315,5.810,14.980,0.910
-0.353,-0.877,0.337,5.530,12.740,1.960
-0.350,-0.865,0.350,4.060,11.200,3.500
-0.349,-0.862,0.350,1.960,10.850,3.850
-0.344,-0.859,0.337,-0.700,10.710,3.850
-0.339,-0.853,0.326,-3.220,10.150,3.920
-0.344,-0.862,0.314,-5.180,9.100,3.290
-0.346,-0.874,0.294,-7.000,7.840,2.520
-0.341,-0.883,0.281,-7.910,7.070,1.960
-0.331,-0.892,0.266,-8.470,6.580,1.610
-0.320,-0.907,0.240,-8.330,7.280,1.400
-0.319,-0.916,0.229,-7.700,7.350,1.260
-0.324,-0.920,0.232,-5.880,6.440,0.840
-0.327,-0.928,0.231,-3.290,5.040,0.560
-0.329,-0.923,0.243,-1.610,4.410,1.260
-0.331,-0.908,0.261,-1.680,3.710,2.030
-0.336,-0.900,0.270,-2.100,3.150,2.520
-0.333,-0.889,0.283,-3.290,2.170,3.080
-0.329,-0.872,0.288,-4.760,1.750,3.360
-0.333,-0.863,0.290,-5.810,1.120,2.940
-0.338,-0.855,0.296,-6.580,0.140,2.380
-0.337,-0.847,0.294,-7.560,-0.490,1.260
-0.333,-0.858,0.290,-8.330,-1.050,0.280
-0.333,-0.883,0.280,-7.910,-1.540,-0.840
-0.334,-0.905,0.260,-6.230,-2.380,-1.540
-0.329,-0.915,0.266,-5.390,-2.940,-0.700
-0.323,-0.914,0.266,-4.900,-2.660,0.420
-0.318,-0.915,0.269,-4.550,-2.590,1.470
-0.322,-0.917,0.272,-3.850,-2.590,1.750
-0.328,-0.908,0.282,-3.780,-3.150,2.310
-0.326,-0.895,0.285,-4.060,-3.010,2.380
-0.323,-0.882,0.284,-5.810,-2.310,2.590
-0.319,-0.874,0.288,-7.630,-1.750,2.590
-0.317,-0.886,0.289,-8.680,-1.750,1.820
-0.318,-0.894,0.290,-8.750,-2.030,0.910
-0.321,-0.906,0.298,-7.980,-2.310,0.350
-0.325,-0.909,0.302,-7.000,-2.520,0.280
-0.330,-0.919,0.296,-5.600,-2.240,-0.070
-0.336,-0.932,0.288,-3.850,-2.240,-0.700
-0.334,-0.943,0.284,-1.960,-2.450,-0.560
-0.329,-0.940,0.289,-1.050,-2.100,0.070
-0.325,-0.932,0.289,-1.050,-1.610,1.050
-0.332,-0.925,0.286,-0.980,-0.910,0.700
-0.336,-0.919,0.292,-1.330,-0.630,0.420
-0.340,-0.921,0.296,-1.540,-0.210,-0.210
-0.339,-0.928,0.300,-1.470,0.770,-0.980
-0.341,-0.927,0.297,-1.400,1.750,-1.820
-0.341,-0.927,0.301,-1.330,2.170,-1.960
-0.341,-0.914,0.301,-0.980,2.520,-1.540
-0.344,-0.912,0.304,-1.050,2.800,-1.680
-0.343,-0.912,0.298,-1.680,3.220,-1.400
-0.344,-0.910,0.288,-2.100,3.850,-1.050
-0.341,-0.911,0.276,-2.590,4.550,-0.980

-0.869,-0.529,-0.939,-12.040,123.690,20.020
-0.883,-0.512,-0.934,-4.200,127.470,22.540
-0.918,-0.524,-0.887,9.030,129.150,24.010
-0.896,-0.534,-0.838,25.480,126.560,23.310
-0.913,-0.517,-0.803,34.930,119.280,20.650
-0.960,-0.461,-0.825,27.370,102.830,17.430
-0.987,-0.413,-0.937,15.050,92.750,12.740
-0.968,-0.408,-1.018,-8.120,82.390,10.360
-0.999,-0.434,-1.139,-35.630,75.040,5.740
-1.003,-0.528,-1.250,-60.480,69.930,0.210
-1.018,-0.605,-1.322,-65.870,65.590,-2.870
-0.965,-0.733,-1.362,-52.850,62.930,-5.320
-0.906,-0.811,-1.362,-29.680,57.820,-4.620
-0.820,-0.839,-1.351,-8.750,51.380,-1.190
-0.746,-0.822,-1.355,3.850,40.810,1.190
-0.729,-0.773,-1.347,6.370,23.800,0.490
-0.726,-0.801,-1.391,-16.730,2.590,-0.420
-0.690,-0.807,-1.450,-17.150,-19.950,-4.340
-0.684,-0.864,-1.502,-35.490,-64.540,-10.710
-0.590,-0.961,-1.449,-59.360,-89.950,-20.020
-0.494,-1.112,-1.394,-74.130,-127.820,-32.830
-0.397,-1.368,-1.309,-84.280,-172.340,-51.100
-0.303,-1.325,-1.254,-92.610,-219.170,-61.040
-0.198,-1.301,-1.217,-103.460,-281.120,-70.560
-0.078,-1.246,-1.278,-113.680,-307.090,-78.680
-0.033,-1.154,-1.288,-130.690,-332.220,-84.840
0.004,-1.081,-1.233,-152.320,-352.730,-95.270
0.044,-0.970,-1.136,-168.700,-370.090,-101.220
0.065,-0.883,-1.026,-174.580,-385.350,-108.780
0.102,-0.847,-0.879,-167.510,-405.090,-120.470
0.155,-0.842,-0.675,-156.520,-423.150,-132.440
0.154,-0.836,-0.360,-152.950,-446.390,-146.860
0.170,-0.930,-0.103,-158.410,-469.140,-159.670
0.198,-1.016,0.086,-173.250,-489.930,-169.260
0.254,-1.070,0.298,-207.060,-518.770,-170.730
0.316,-1.064,0.304,-251.160,-485.730,-164.080
0.688,-1.085,0.036,-273.140,-456.540,-146.230
0.556,-1.038,-0.442,-276.290,-429.940,-128.730
0.422,-1.060,-1.042,-198.170,-384.580,-117.390
0.616,-1.132,-1.147,-133.980,-366.240,-121.450
0.693,-1.105,-1.135,-90.440,-328.440,-117.040
0.819,-1.053,-0.910,-67.060,-326.480,-105.630
0.821,-1.076,-0.688,-54.320,-316.330,-95.550
0.758,-1.125,-0.432,-43.260,-308.770,-86.590
0.696,-1.182,-0.123,-33.390,-304.990,-79.240
0.650,-1.217,0.135,-33.880,-301.070,-69.160
0.652,-1.178,0.295,-40.320,-292.110,-53.970
0.667,-1.126,0.449,-49.420,-282.590,-38.080
0.655,-1.121,0.463,-61.320,-268.940,-26.460
0.635,-1.069,0.432,-71.960,-252.630,-17.430
0.589,-1.003,0.381,-77.210,-233.940,-17.570
0.540,-0.988,0.366,-80.010,-213.500,-21.070
0.382,-1.010,0.348,-77.770,-187.950,-24.430
0.463,-1.040,0.372,-70.000,-172.690,-24.290
0.414,-1.092,0.398,-58.940,-159.950,-23.100
0.386,-1.135,0.444,-50.260,-149.800,-20.230
0.363,-1.134,0.460,-41.160,-142.100,-15.470
0.353,-1.131,0.493,-36.470,-136.500,-13.230
0.354,-1.131,0.513,-33.880,-131.600,-10.780
0.347,-1.126,0.552,-34.440,-126.560,-8.190
0.326,-1.112,0.586,-36.890,-118.930,-5.390
0.296,-1.090,0.585,-35.420,-113.750,-3.290
0.254,-1.082,0.557,-32.690,-109.200,-3.290
0.209,-1.061,0.536,-29.260,-104.860,-3.710
0.165,-1.039,0.502,-26.320,-99.960,-4.270
0.124,-1.067,0.448,-21.420,-94.920,-4.900
0.087,-1.111,0.414,-13.790,-91.420,-5.530
0.041,-1.147,0.399,-4.970,-86.730,-4.970
0.019,-1.167,0.384,1.890,-81.690,-3.850
0.004,-1.147,0.393,7.700,-76.300,-1.470
-0.009,-1.111,0.403,12.250,-70.560,0.910
-0.022,-1.054,0.414,10.640,-64.680,2.170
-0.044,-1.008,0.421,5.320,-58.590,2.310
-0.064,-0.976,0.426,0.070,-53.620,0.980
-0.082,-0.973,0.404,-3.780,-47.460,-1.260
-0.086,-0.977,0.386,-5.670,-42.490,-3.780
-0.095,-0.977,0.365,-4.690,-31.290,-8.400
-0.103,-0.968,0.367,-3.640,-24.990,-10.220
-0.155,-0.992,0.359,0.350,-23.660,-9.590
-0.201,-1.032,0.320,4.340,-20.930,-9.030
-0.220,-1.056,0.282,10.290,-17.220,-8.330
-0.230,-1.059,0.238,15.190,-11.550,-6.930
-0.231,-1.038,0.227,18.480,-6.440,-4.620
-0.228,-1.015,0.234,19.390,-1.820,-3.150
-0.234,-0.994,0.246,19.110,0.350,-2.870
-0.236,-0.979,0.253,16.170,1.680,-3.290
-0.227,-0.933,0.280,10.990,3.220,-2.450
-0.214,-0.907,0.298,6.930,4.340,-2.450
-0.211,-0.921,0.314,5.180,5.390,-4.340
-0.221,-0.949,0.320,5.040,6.160,-7.140
-0.243,-0.969,0.309,4.760,7.000,-9.100
-0.253,-0.979,0.276,5.180,8.260,-9.800
-0.250,-0.990,0.242,6.090,9.660,-9.870
-0.243,-0.993,0.212,9.380,11.130,-9.450
-0.249,-0.991,0.192,12.110,12.530,-8.540
-0.250,-0.970,0.167,12.600,14.840,-5.950
-0.241,-0.959,0.132,12.740,18.270,-4.480
-0.227,-0.946,0.112,12.950,21.560,-4.340
-0.228,-0.918,0.123,11.970,23.870,-4.550
-0.241,-0.915,0.157,11.760,25.410,-5.320
-0.255,-0.932,0.191,11.830,25.690,-6.160
-0.257,-0.940,0.215,11.760,26.320,-6.020
-0.259,-0.935,0.239,11.480,26.530,-5.180
-0.261,-0.940,0.251,11.480,25.970,-4.760
-0.264,-0.938,0.261,11.200,24.990,-4.410
-0.268,-0.929,0.260,10.850,24.570,-3.990
-0.273,-0.925,0.243,10.780,24.290,-3.780
-0.271,-0.922,0.223,10.010,24.920,-3.430
-0.264,-0.908,0.200,9.100,25.270,-3.080
-0.262,-0.915,0.172,8.820,26.110,-3.360
-0.265,-0.932,0.153,9.030,26.880,-3.850
-0.262,-0.940,0.148,9.310,27.230,-3.500
-0.263,-0.944,0.142,9.660,27.720,-2.590
-0.263,-0.956,0.140,9.660,28.140,-1.610
-0.266,-0.959,0.148,10.570,27.930,-0.490
-0.278,-0.956,0.154,10.990,27.300,0.350
-0.290,-0.939,0.159,10.080,27.370,0.910
-0.299,-0.922,0.167,8.400,26.600,1.960
-0.305,-0.912,0.168,6.720,25.270,1.540
-0.306,-0.901,0.170,4.410,24.990,1.330
-0.309,-0.898,0.175,2.800,23.940,0.770
-0.316,-0.904,0.173,1.470,22.750,-0.070
-0.311,-0.911,0.167,0.840,21.280,-0.980
-0.310,-0.929,0.163,0.630,20.440,-1.820
-0.308,-0.949,0.157,0.770,19.950,-1.960
-0.308,-0.968,0.143,1.330,20.090,-1.750
-0.312,-0.975,0.136,3.220,20.090,-1.050
-0.313,-0.961,0.142,3.220,19.950,0.560
-0.314,-0.947,0.149,3.010,19.670,1.610
-0.325,-0.939,0.152,2.030,19.110,1.820
-0.332,-0.936,0.154,0.840,18.480,1.890
-0.335,-0.939,0.150,0.140,18.480,1.890
-0.336,-0.936,0.154,-0.420,18.200,2.170
-0.340,-0.942,0.152,-0.210,17.990,1.120
-0.354,-0.950,0.153,-0.420,17.920,-0.420
-0.367,-0.961,0.151,-0.490,17.640,-1.540
-0.360,-0.970,0.146,0.350,17.010,-2.030
-0.349,-0.979,0.145,1.260,16.310,-1.540
-0.345,-0.984,0.134,2.590,16.240,-0.350
-0.348,-0.976,0.121,3.010,16.240,1.400
-0.347,-0.961,0.119,3.080,16.240,2.030
-0.346,-0.937,0.119,2.170,15.750,2.520
-0.346,-0.926,0.120,1.890,15.050,2.660
-0.347,-0.924,0.122,1.260,14.420,2.380
-0.352,-0.930,0.121,0.700,14.280,2.170
-0.354,-0.938,0.125,0.630,13.790,1.680
-0.359,-0.947,0.124,0.630,13.230,1.260
-0.362,-0.956,0.127,1.260,12.320,0.630
-0.359,-0.961,0.130,1.890,11.690,0.350
-0.351,-0.955,0.132,2.450,11.480,0.980
-0.346,-0.954,0.129,3.010,11.340,1.890
-0.349,-0.945,0.124,3.290,11.340,2.660
-0.351,-0.935,0.115,3.990,11.130,3.360
-0.351,-0.923,0.114,4.270,10.920,3.360
-0.354,-0.909,0.116,3.640,10.920,2.940
-0.343,-0.903,0.122,2.450,10.710,2.870
-0.341,-0.906,0.122,1.400,11.200,2.450
-0.343,-0.912,0.122,0.700,11.550,1.680
-0.355,-0.919,0.123,0.700,11.060,0.630
-0.362,-0.934,0.127,0.420,10.430,-0.210
-0.354,-0.937,0.134,0.070,10.220,-0.560
-0.350,-0.943,0.139,0.000,9.870,-0.490
-0.349,-0.951,0.140,0.280,9.240,-0.560
-0.353,-0.945,0.139,0.700,9.310,-0.420
-0.352,-0.943,0.133,1.120,8.540,-0.070
-0.348,-0.945,0.130,1.750,7.490,0.490
-0.343,-0.936,0.129,2.030,7.630,0.560
-0.339,-0.925,0.133,2.450,7.840,0.840
-0.343,-0.927,0.132,2.170,7.840,0.630
-0.346,-0.929,0.135,2.170,7.770,0.350
-0.346,-0.929,0.137,1.680,8.050,-0.140
-0.348,-0.922,0.136,0.700,8.680,0.490
-0.348,-0.923,0.140,0.350,8.610,0.910
-0.348,-0.929,0.141,0.280,8.470,1.050
-0.348,-0.928,0.146,0.420,8.050,1.120
-0.347,-0.928,0.147,0.140,8.050,1.400
-0.342,-0.924,0.152,0.070,8.260,1.610
-0.341,-0.925,0.153,-0.140,8.330,1.540
-0.339,-0.926,0.154,0.070,7.770,1.540
-0.334,-0.930,0.148,0.350,7.840,0.840
-0.329,-0.930,0.143,-0.070,8.330,0.490
-0.327,-0.922,0.153,-1.890,8.330,1.120
-0.327,-0.915,0.144,-2.450,8.120,1.190
-0.326,-0.926,0.142,-2.730,7.420,0.490
-0.322,-0.934,0.141,-2.170,7.140,0.140
-0.318,-0.935,0.144,-2.170,7.280,0.770
-0.312,-0.933,0.149,-3.080,7.420,1.540
-0.311,-0.937,0.155,-3.710,7.350,1.960
-0.310,-0.945,0.153,-4.060,7.630,2.310
-0.310,-0.945,0.150,-4.200,7.910,3.080
-0.308,-0.947,0.148,-4.620,7.910,3.780
-0.310,-0.939,0.145,-4.690,7.980,4.690
-0.308,-0.927,0.149,-5.320,7.840,5.250
-0.306,-0.932,0.149,-5.670,7.840,5.110
-0.305,-0.940,0.146,-5.950,8.190,4.970
-0.303,-0.950,0.143,-5.950,8.960,4.900
-0.301,-0.952,0.134,-4.760,10.290,4.900
-0.297,-0.952,0.132,-4.340,10.080,5.390
-0.298,-0.947,0.140,-4.060,9.590,5.390

-1.049,-0.621,-0.709,-11.550,67.270,-16.800
-1.048,-0.674,-0.755,-16.100,64.890,-22.330
-1.009,-0.781,-0.858,-6.510,59.990,-26.880
-0.983,-0.866,-0.847,10.010,54.740,-28.560
-0.969,-0.899,-0.847,28.350,45.430,-28.350
-0.944,-0.906,-0.818,46.270,31.360,-25.060
-0.925,-0.882,-0.799,51.800,14.210,-22.470
-0.883,-0.835,-0.802,50.120,-3.570,-19.320
-0.841,-0.851,-0.827,41.930,-27.510,-16.310
-0.812,-0.839,-0.924,33.390,-41.370,-15.540
-0.791,-0.864,-0.987,24.080,-52.710,-15.890
-0.776,-0.881,-1.050,15.120,-60.550,-16.800
-0.750,-0.930,-1.074,5.250,-66.360,-19.670
-0.725,-0.974,-1.070,-2.030,-72.660,-22.050
-0.699,-1.028,-1.017,-6.860,-83.860,-24.430
-0.669,-1.054,-0.973,-9.940,-95.270,-26.110
-0.637,-1.062,-0.953,-11.410,-108.150,-27.440
-0.595,-1.047,-0.936,-13.090,-121.450,-28.350
-0.549,-0.981,-0.891,-21.140,-135.170,-26.320
-0.476,-0.865,-0.804,-37.940,-156.940,-24.570
-0.401,-0.801,-0.721,-58.450,-175.770,-28.350
-0.359,-0.837,-0.640,-82.670,-197.190,-38.570
-0.291,-0.878,-0.682,-108.850,-215.950,-53.200
-0.213,-0.918,-0.758,-114.590,-230.230,-63.700
-0.137,-0.954,-0.802,-113.120,-243.040,-73.430
-0.080,-0.976,-0.841,-101.360,-250.040,-83.300
-0.010,-1.047,-0.794,-80.920,-256.970,-93.380
0.055,-1.145,-0.675,-66.360,-266.000,-98.630
0.142,-1.250,-0.534,-58.030,-274.330,-101.150
0.280,-1.291,-0.383,-61.670,-283.780,-95.550
0.365,-1.240,-0.369,-69.300,-289.800,-82.530
0.416,-1.127,-0.421,-74.340,-292.110,-63.350
0.561,-1.026,-0.539,-71.820,-283.920,-47.670
0.519,-0.978,-0.605,-58.730,-282.100,-38.220
0.410,-1.002,-0.694,-32.620,-303.940,-32.760
0.423,-1.073,-0.717,-2.520,-289.660,-26.460
0.509,-1.126,-0.672,16.870,-281.820,-15.190
0.598,-1.098,-0.569,21.000,-272.860,8.330
0.633,-1.067,-0.359,10.990,-271.040,22.050
0.619,-1.054,-0.170,-4.410,-275.030,30.310
0.595,-0.979,-0.009,-17.990,-277.900,37.240
0.569,-0.896,0.188,-34.230,-276.780,44.100
0.533,-0.813,0.341,-55.300,-270.410,51.030
0.488,-0.755,0.443,-75.530,-262.710,54.670
0.416,-0.727,0.486,-92.960,-250.040,52.290
0.362,-0.745,0.471,-106.190,-239.330,43.610
0.315,-0.822,0.447,-112.420,-229.180,30.450
0.280,-0.919,0.422,-113.190,-218.190,15.050
0.284,-1.018,0.416,-108.290,-207.270,-1.260
0.302,-1.129,0.413,-96.600,-197.820,-7.490
0.328,-1.196,0.425,-85.540,-191.030,-8.960
0.347,-1.251,0.446,-73.640,-185.430,-7.210
0.367,-1.250,0.486,-64.260,-162.330,-2.450
0.399,-1.188,0.500,-59.710,-170.660,4.760
0.419,-1.070,0.500,-59.150,-162.540,12.180
0.376,-0.980,0.472,-57.610,-154.700,14.630
0.294,-0.948,0.473,-55.580,-149.310,12.390
0.219,-0.960,0.475,-53.130,-144.620,8.890
0.176,-1.015,0.464,-50.260,-139.370,5.670
0.165,-1.099,0.470,-46.200,-134.050,5.810
0.169,-1.139,0.476,-42.560,-128.100,6.790
0.178,-1.153,0.477,-38.290,-121.100,7.560
0.186,-1.151,0.498,-35.000,-114.240,8.470
0.186,-1.138,0.516,-33.390,-107.870,10.010
0.180,-1.097,0.514,-33.950,-104.160,12.880
0.177,-1.042,0.512,-35.140,-100.940,15.540
0.166,-0.996,0.491,-36.120,-97.790,15.820
0.156,-0.997,0.441,-32.690,-82.320,5.740
0.155,-1.034,0.457,-28.420,-82.460,1.540
0.072,-1.072,0.456,-29.750,-86.240,1.750
0.073,-1.105,0.397,-26.880,-82.110,4.270
0.082,-1.139,0.360,-19.460,-79.450,4.900
0.057,-1.132,0.347,-10.990,-74.200,5.460
0.032,-1.120,0.343,-2.800,-68.950,6.650
-0.001,-1.082,0.347,1.540,-61.040,8.680
-0.021,-1.014,0.378,0.280,-57.470,11.970
-0.051,-0.953,0.393,-3.290,-54.670,13.510
-0.071,-0.924,0.395,-8.120,-52.850,12.950
-0.088,-0.903,0.388,-11.690,-52.010,11.620
-0.100,-0.927,0.390,-16.170,-51.030,10.850
-0.103,-0.964,0.396,-18.480,-49.560,10.150
-0.108,-1.004,0.388,-18.620,-48.580,9.800
-0.104,-1.042,0.373,-16.660,-46.060,9.310
-0.102,-1.058,0.366,-11.760,-43.680,8.820
-0.104,-1.054,0.354,-7.490,-40.320,8.750
-0.106,-1.036,0.333,-3.150,-36.190,9.450
-0.115,-1.012,0.311,0.420,-31.780,11.200
-0.132,-0.968,0.301,4.550,-27.790,11.690
-0.145,-0.941,0.292,5.670,-23.450,10.850
-0.156,-0.905,0.291,5.740,-18.410,8.540
-0.172,-0.884,0.296,4.410,-13.650,4.760
-0.181,-0.871,0.318,2.170,-8.680,0.980
-0.192,-0.884,0.318,1.050,-5.460,-2.940
-0.201,-0.903,0.306,0.350,-2.940,-5.740
-0.206,-0.925,0.299,0.280,-0.210,-7.910
-0.209,-0.953,0.289,-0.630,2.660,-9.730
-0.203,-0.955,0.292,0.210,5.250,-10.430
-0.201,-0.962,0.286,1.470,7.910,-10.500
-0.208,-0.966,0.276,3.500,10.360,-10.500
-0.219,-0.957,0.251,5.670,13.020,-10.010
-0.225,-0.948,0.218,7.840,15.120,-8.680
-0.235,-0.940,0.189,9.170,17.710,-7.630
-0.243,-0.936,0.180,10.640,18.200,-7.910
-0.256,-0.948,0.183,11.480,17.290,-9.240
-0.258,-0.966,0.193,11.620,15.540,-10.570
-0.254,-0.976,0.203,12.460,14.140,-11.340
-0.246,-0.978,0.221,13.020,13.090,-10.780
-0.254,-0.986,0.230,12.320,12.530,-10.010
-0.261,-0.972,0.228,11.270,12.600,-8.120
-0.263,-0.953,0.225,10.360,13.300,-6.230
-0.266,-0.936,0.210,9.310,13.930,-5.180
-0.277,-0.921,0.197,8.190,14.840,-4.060
-0.284,-0.918,0.179,7.490,16.100,-3.780
-0.299,-0.923,0.164,6.230,17.220,-4.060
-0.305,-0.922,0.155,5.600,17.640,-3.780
-0.295,-0.927,0.140,5.250,18.410,-3.570
-0.283,-0.940,0.135,5.110,19.810,-3.010
-0.279,-0.950,0.141,5.320,20.580,-2.590
-0.291,-0.955,0.169,5.250,19.670,-2.100
-0.298,-0.962,0.194,4.970,18.690,-2.590
-0.304,-0.972,0.216,5.460,17.850,-3.220
-0.308,-0.973,0.227,6.020,17.780,-2.310
-0.310,-0.961,0.230,5.670,18.060,-1.400
-0.316,-0.942,0.222,4.690,18.690,-0.840
-0.315,-0.932,0.207,3.850,18.340,-0.910
-0.310,-0.929,0.192,2.170,18.340,-1.540
-0.291,-0.930,0.176,0.980,19.040,-1.680
-0.278,-0.933,0.162,0.770,19.110,-1.260
-0.274,-0.939,0.158,1.610,19.180,-1.120
-0.284,-0.959,0.159,2.450,19.390,-1.610
-0.289,-0.967,0.162,2.380,19.810,-1.540
-0.290,-0.949,0.168,1.050,20.090,-0.350
-0.296,-0.944,0.165,0.630,19.880,-0.490
-0.308,-0.948,0.160,0.070,19.110,-0.840
-0.316,-0.948,0.153,-0.350,18.060,-1.190
-0.314,-0.944,0.153,-1.260,16.940,-0.630
-0.311,-0.943,0.145,-1.820,16.310,-0.770
-0.310,-0.948,0.134,-1.400,15.400,-1.050
-0.310,-0.949,0.129,17.710,14.070,-1.330
-0.310,-0.951,0.126,1.750,12.880,-2.310
-0.308,-0.947,0.136,1.330,11.690,-2.660
-0.308,-0.954,0.142,1.750,10.360,-3.430
-0.307,-0.963,0.144,2.520,9.380,-4.270
-0.303,-0.968,0.146,3.220,8.890,-4.200
-0.306,-0.970,0.131,3.780,9.450,-3.500
-0.311,-0.953,0.138,2.870,9.520,-2.590
-0.312,-0.932,0.139,0.770,9.100,-2.030
-0.312,-0.931,0.141,-0.420,8.820,-2.450
-0.310,-0.941,0.140,-1.330,8.820,-2.590
-0.312,-0.959,0.140,-1.050,8.680,-1.610
-0.309,-0.966,0.138,-0.210,9.030,-0.910
-0.311,-0.968,0.138,0.070,8.960,-0.490
-0.316,-0.967,0.142,0.630,8.330,-0.910
-0.323,-0.962,0.149,0.140,7.070,-1.190
-0.320,-0.963,0.161,0.210,5.600,-1.190
-0.320,-0.970,0.162,0.350,4.620,-1.470
-0.316,-0.970,0.164,0.910,3.850,-1.330
-0.313,-0.966,0.168,1.120,3.780,-1.400
-0.303,-0.960,0.171,0.000,3.780,-1.050
-0.303,-0.956,0.157,-0.980,3.920,-0.630
-0.305,-0.954,0.150,-0.630,4.340,-0.630
-0.301,-0.950,0.142,0.140,4.690,-0.420
-0.295,-0.950,0.140,0.490,5.320,-0.070
-0.301,-0.948,0.146,0.910,5.880,-0.280
-0.308,-0.952,0.153,1.120,5.600,0.000
-0.312,-0.957,0.157,1.960,5.670,-0.560
-0.316,-0.956,0.164,3.290,5.950,-0.700
-0.322,-0.954,0.170,3.010,6.300,-0.560
-0.330,-0.949,0.183,1.960,6.090,-0.630
-0.336,-0.944,0.181,1.330,5.600,-1.190
-0.329,-0.941,0.178,0.420,5.180,-1.540
-0.321,-0.940,0.172,0.140,5.320,-0.910
-0.311,-0.939,0.162,0.210,5.320,-0.420
-0.311,-0.938,0.158,0.140,5.530,-0.490
-0.318,-0.933,0.149,-0.070,5.950,-0.840
-0.319,-0.933,0.144,-0.140,6.370,-1.190
-0.321,-0.940,0.147,0.280,5.880,-1.050
-0.317,-0.952,0.141,0.910,5.530,-0.910
-0.313,-0.956,0.140,2.310,5.530,-0.770
-0.314,-0.956,0.147,2.660,5.250,-0.210
-0.311,-0.942,0.162,2.800,4.550,0.210
-0.318,-0.931,0.171,1.540,3.920,-0.140
-0.319,-0.931,0.172,0.630,3.430,-0.700
-0.320,-0.939,0.165,-0.420,3.290,-1.050
-0.320,-0.938,0.161,-0.910,3.780,-0.840
-0.322,-0.934,0.146,-1.610,3.430,-0.910
-0.321,-0.930,0.141,-1.540,3.080,-1.260
-0.317,-0.928,0.133,-1.470,2.590,-1.260
-0.318,-0.935,0.129,-0.910,1.960,-1.120
-0.313,-0.948,0.128,0.350,1.330,-0.910
-0.307,-0.966,0.132,2.380,0.910,-1.260
-0.299,-0.978,0.139,3.430,0.630,-1.260
-0.289,-0.973,0.149,4.340,0.490,-0.280
-0.279,-0.965,0.159,3.990,0.000,0.630
-0.275,-0.956,0.171,1.960,-0.630,1.610
-0.273,-0.946,0.181,0.070,-1.260,2.240
-0.275,-0.943,0.183,-1.960,-2.030,2.380
-0.275,-0.939,0.177,-4.060,-2.100,2.450
-0.267,-0.945,0.168,-5.390,-1.610,2.170

-1.071,-0.784,-0.467,-6.510,116.970,-25.760
-1.045,-0.804,-0.528,-29.820,113.120,-27.160
-1.003,-0.835,-0.574,-53.830,111.230,-29.680
-0.969,-0.884,-0.669,-68.460,109.480,-53.760
-0.928,-0.984,-0.783,-72.730,109.620,-38.430
-0.919,-1.036,-0.867,-69.860,111.230,-35.070
-0.909,-1.081,-0.922,-63.770,119.280,-29.960
-0.935,-1.118,-0.968,-59.990,114.800,-27.440
-1.025,-1.131,-0.994,-56.560,108.850,-24.220
-1.014,-1.137,-1.015,-54.530,98.980,-21.350
-1.010,-1.142,-1.014,-61.740,85.190,-17.920
-0.959,-1.125,-1.065,-72.730,69.020,-15.400
-0.899,-1.160,-1.095,-84.000,50.120,-13.720
-0.792,-1.240,-1.129,-91.700,16.310,-12.810
-0.669,-1.356,-1.142,-94.780,-16.870,-12.600
-0.542,-1.468,-1.168,-94.080,-54.110,-10.640
-0.419,-1.517,-1.182,-88.410,-94.640,-2.940
-0.298,-1.528,-1.203,-81.200,-137.620,3.290
-0.197,-1.532,-1.179,-69.510,-201.320,11.410
-0.107,-1.566,-1.033,-53.130,-246.960,18.760
-0.056,-1.591,-0.913,-38.500,-290.640,27.300
-0.010,-1.515,-0.768,-35.420,-328.860,39.270
0.040,-1.387,-0.583,-43.120,-359.940,41.720
0.103,-1.291,-0.346,-69.230,-384.790,41.230
0.112,-1.209,-0.242,-94.990,-399.910,34.650
0.107,-1.194,-0.151,-120.400,-414.260,28.770
0.125,-1.164,-0.195,-141.750,-415.940,28.140
0.130,-1.106,-0.244,-154.700,-413.560,30.730
0.139,-1.093,-0.439,-156.800,-410.200,30.310
0.216,-1.068,-0.592,-133.070,-404.390,27.300
0.339,-1.140,-0.778,-107.240,-387.940,21.840
0.472,-1.189,-0.689,-76.580,-371.490,19.040
0.503,-1.277,-0.239,-48.300,-357.770,21.280
0.601,-1.377,0.200,-35.070,-350.700,30.870
0.667,-1.409,0.533,-31.640,-343.490,43.190
0.696,-1.318,0.709,-34.090,-331.100,56.070
0.707,-1.143,0.809,-39.900,-318.500,69.720
0.589,-0.948,0.804,-51.800,-308.770,73.080
0.484,-0.834,0.706,-58.940,-295.750,72.800
0.409,-0.714,0.546,-65.520,-280.000,70.420
0.342,-0.631,0.380,-71.330,-267.330,64.400
0.243,-0.573,0.184,-70.700,-254.310,56.070
0.200,-0.586,0.055,-63.980,-218.680,44.450
0.211,-0.697,0.140,-56.980,-222.880,30.100
0.216,-0.817,0.277,-51.170,-223.370,17.080
0.249,-0.902,0.502,-45.010,-229.250,10.220
0.315,-1.009,0.671,-43.750,-229.880,8.540
0.444,-1.041,0.841,-43.890,-212.660,13.090
0.594,-1.034,0.957,-45.150,-195.160,24.710
0.582,-0.974,0.993,-49.420,-191.940,30.240
0.526,-0.873,0.950,-56.910,-187.320,37.730
0.483,-0.788,0.883,-62.440,-181.580,44.660
0.421,-0.749,0.795,-65.450,-173.880,47.600
0.386,-0.740,0.677,-67.060,-164.500,45.430
0.282,-0.750,0.549,-66.150,-156.590,40.740
0.213,-0.787,0.442,-61.950,-146.230,33.670
0.167,-0.858,0.422,-57.120,-139.650,26.670
0.173,-0.912,0.456,-54.740,-136.430,23.590
0.193,-0.939,0.534,-55.300,-134.120,24.570
0.224,-0.949,0.599,-55.790,-129.500,26.740
0.283,-0.981,0.558,-53.340,-85.540,19.460
0.375,-0.920,0.715,-53.690,-79.940,18.200
0.233,-0.837,0.756,-52.570,-87.080,21.770
0.134,-0.817,0.768,-54.600,-89.110,26.320
0.106,-0.821,0.778,-57.610,-91.840,26.670
0.070,-0.861,0.768,-57.400,-95.830,25.060
0.063,-0.938,0.743,-53.830,-99.890,24.780
0.061,-1.007,0.739,-46.760,-102.760,23.450
0.071,-1.048,0.686,-38.640,-102.760,21.420
0.078,-1.044,0.651,-30.380,-99.540,20.580
0.078,-1.018,0.610,-23.590,-92.750,21.140
0.069,-0.996,0.572,-17.500,-83.790,22.890
0.042,-0.969,0.555,-12.250,-75.880,26.040
0.000,-0.935,0.549,-8.820,-69.580,28.210
-0.031,-0.893,0.552,-6.790,-64.610,28.070
-0.070,-0.883,0.561,-7.630,-61.250,25.970
-0.075,-0.876,0.572,-8.260,-59.010,21.840
-0.076,-0.877,0.585,-7.840,-57.750,18.620
-0.070,-0.891,0.609,-6.440,-56.210,15.610
-0.070,-0.897,0.616,-4.130,-55.230,13.510
-0.074,-0.900,0.617,-1.820,-52.780,12.810
-0.079,-0.903,0.611,-1.330,-50.120,12.670
-0.090,-0.887,0.599,-1.120,-48.860,12.180
-0.105,-0.874,0.586,-2.730,-47.320,12.110
-0.122,-0.860,0.576,-4.900,-45.500,12.040
-0.136,-0.860,0.562,-6.580,-43.260,12.390
-0.146,-0.873,0.549,-6.860,-39.270,12.740
-0.164,-0.872,0.549,-6.860,-37.450,12.530
-0.179,-0.873,0.541,-5.530,-34.860,10.570
-0.189,-0.902,0.528,-2.450,-30.310,7.350
-0.186,-0.915,0.524,0.910,-25.690,3.920
-0.183,-0.901,0.521,3.500,-21.980,2.590
-0.179,-0.887,0.520,6.720,-18.620,2.380
-0.169,-0.876,0.525,9.800,-16.030,3.290
-0.162,-0.868,0.534,12.040,-14.000,4.060
-0.153,-0.841,0.541,9.590,-10.220,5.950
-0.160,-0.779,0.548,4.550,-7.420,8.120
-0.185,-0.754,0.528,-1.330,-5.180,7.560
-0.211,-0.752,0.501,-7.000,-2.800,5.740
-0.226,-0.752,0.481,-11.690,-0.420,2.940
-0.238,-0.784,0.467,-14.490,1.260,0.560
-0.240,-0.813,0.447,-13.230,3.290,-2.380
-0.234,-0.849,0.448,-9.940,5.040,-4.480
-0.232,-0.884,0.448,-4.340,5.950,-5.460
-0.221,-0.915,0.441,1.750,6.300,-5.320
-0.208,-0.919,0.440,6.020,7.420,-3.920
-0.205,-0.900,0.437,8.960,8.820,-2.170
-0.214,-0.865,0.440,9.800,9.380,-0.910
-0.224,-0.822,0.450,8.610,8.960,-0.910
-0.233,-0.793,0.464,6.090,8.260,-2.380
-0.238,-0.775,0.469,1.960,7.980,-4.620
-0.239,-0.771,0.472,-0.630,7.560,-5.950
-0.238,-0.773,0.468,-2.030,7.910,-7.140
-0.235,-0.776,0.452,-2.800,8.890,-8.820
-0.241,-0.797,0.438,-2.940,9.590,-10.780
-0.245,-0.833,0.430,-2.170,9.100,-12.880
-0.241,-0.870,0.424,0.210,8.540,-14.490
-0.232,-0.898,0.418,3.290,8.610,-14.980
-0.224,-0.899,0.423,4.970,9.590,-14.140
-0.217,-0.890,0.425,4.410,11.410,-12.810
-0.208,-0.876,0.417,4.270,12.320,-11.270
-0.207,-0.872,0.419,3.990,12.530,-11.200
-0.209,-0.859,0.429,2.450,12.670,-10.990
-0.212,-0.850,0.436,1.190,12.740,-10.850
-0.219,-0.850,0.438,0.210,13.090,-10.920
-0.228,-0.856,0.444,-0.560,13.510,-11.760
-0.237,-0.864,0.444,-1.050,14.350,-12.600
-0.250,-0.884,0.443,-0.910,14.490,-13.580
-0.264,-0.902,0.435,-0.560,14.210,-14.280
-0.267,-0.913,0.427,0.910,13.650,-14.490
-0.266,-0.917,0.425,0.980,13.090,-13.510
-0.258,-0.915,0.422,0.630,13.020,-12.180
-0.245,-0.914,0.418,0.140,12.740,-10.570
-0.239,-0.919,0.415,0.420,12.460,-9.240
-0.234,-0.923,0.407,0.420,12.740,-8.400
-0.227,-0.913,0.400,-0.630,14.630,-7.000
-0.224,-0.892,0.400,-2.380,15.960,-5.670
-0.239,-0.887,0.399,-3.990,16.800,-6.160
-0.257,-0.892,0.401,-4.620,16.730,-7.140
-0.274,-0.901,0.392,-5.250,16.660,-8.680
-0.275,-0.917,0.387,-5.180,16.730,-8.960
-0.275,-0.930,0.387,-5.390,16.450,-8.540
-0.266,-0.939,0.383,-4.830,15.890,-8.190
-0.264,-0.950,0.382,-3.850,14.840,-7.910
-0.254,-0.950,0.385,-3.150,14.140,-7.490
-0.252,-0.947,0.373,-2.800,13.580,-6.650
-0.243,-0.942,0.368,-2.240,13.300,-5.810
-0.239,-0.945,0.362,-1.470,13.090,-5.530
-0.235,-0.938,0.354,-0.630,12.740,-5.320
-0.235,-0.926,0.363,-0.840,12.110,-4.620
-0.231,-0.917,0.370,-1.330,11.620,-4.130
-0.225,-0.915,0.373,-2.310,11.620,-3.920
-0.222,-0.915,0.375,-2.310,11.270,-3.640
-0.228,-0.923,0.378,-2.870,10.710,-3.360
-0.231,-0.921,0.379,-3.080,10.220,-3.430
-0.232,-0.922,0.381,-2.870,9.660,-3.640
-0.233,-0.926,0.381,-2.030,9.170,-3.990
-0.234,-0.931,0.376,-0.350,8.680,-3.430
-0.237,-0.930,0.377,1.190,7.980,-3.150
-0.240,-0.921,0.375,1.680,8.190,-2.800
-0.242,-0.901,0.388,0.420,8.610,-2.170
-0.244,-0.890,0.385,-0.980,7.980,-2.170
-0.243,-0.895,0.379,-1.820,7.770,-2.940
-0.245,-0.899,0.371,-1.330,7.630,-3.500
-0.246,-0.906,0.369,-0.700,7.700,-3.640
-0.244,-0.915,0.372,0.560,7.980,-3.780
-0.240,-0.911,0.379,0.140,8.330,-3.290
-0.236,-0.895,0.392,-0.560,8.330,-2.520
-0.240,-0.899,0.390,-1.540,7.700,-2.730
-0.247,-0.900,0.393,-1.960,6.510,-3.290
-0.248,-0.899,0.392,-2.240,5.600,-3.640
-0.244,-0.899,0.385,-2.170,5.530,-3.850
-0.242,-0.905,0.382,-1.820,5.880,-3.920
-0.243,-0.905,0.379,-2.030,6.020,-3.360
-0.248,-0.903,0.379,-1.960,6.230,-3.360
-0.250,-0.904,0.372,-1.890,5.950,-3.850
-0.256,-0.907,0.367,-0.280,5.250,-4.690
-0.262,-0.914,0.365,1.330,4.620,-4.760
-0.255,-0.915,0.373,2.590,4.340,-4.620
-0.250,-0.917,0.379,3.990,4.270,-4.200
-0.247,-0.911,0.385,4.060,4.690,-3.710
-0.247,-0.890,0.395,2.520,4.690,-2.730
-0.251,-0.880,0.399,1.120,3.990,-2.450
-0.255,-0.880,0.397,0.140,2.870,-2.800
-0.253,-0.877,0.385,-0.210,2.380,-3.430
-0.243,-0.873,0.379,-1.050,2.240,-3.080
-0.236,-0.873,0.380,-2.450,2.520,-3.010
-0.234,-0.881,0.380,-3.430,2.800,-3.150
-0.240,-0.895,0.380,-3.640,2.450,-3.150
-0.242,-0.915,0.376,-3.780,2.730,-2.800
-0.238,-0.929,0.368,-2.870,3.080,-2.170
-0.237,-0.935,0.367,-1.190,3.010,-1.750
-0.243,-0.933,0.377,-0.210,3.150,-1.330
-0.243,-0.920,0.388,-0.490,2.870,-0.420
-0.238,-0.915,0.399,-0.420,2.590,0.420
-0.237,-0.915,0.399,-1.330,2.450,0.840
-0.238,-0.910,0.399,-1.540,2.730,1.260
-0.239,-0.901,0.398,-2.590,2.660,1.610
-0.238,-0.887,0.396,-3.920,2.590,1.820

-0.736,-0.910,-0.717,-86.800,68.110,-26.180
-0.738,-0.953,-0.773,-76.230,63.210,-24.290
-0.770,-0.914,-0.854,-67.760,57.960,-22.750
-0.777,-0.841,-0.952,-71.610,53.620,-22.680
-0.779,-0.750,-1.077,-84.280,47.180,-23.380
-0.732,-0.693,-1.212,-103.250,38.850,-25.690
-0.739,-0.675,-1.271,-131.110,25.900,-30.450
-0.713,-0.659,-1.413,-155.190,12.670,-36.260
-0.653,-0.704,-1.493,-165.200,-1.960,-47.180
-0.594,-0.820,-1.529,-149.870,-23.520,-54.250
-0.547,-0.918,-1.549,-121.240,-67.270,-52.780
-0.492,-0.960,-1.596,-83.510,-109.200,-47.460
-0.441,-0.972,-1.620,-44.170,-154.350,-42.910
-0.380,-0.955,-1.600,-5.530,-196.490,-40.950
-0.320,-1.013,-1.457,0.910,-231.210,-41.930
-0.277,-1.089,-1.302,-7.280,-265.510,-45.920
-0.262,-1.159,-1.119,-22.680,-283.780,-51.450
-0.264,-1.179,-1.003,-44.310,-298.200,-55.860
-0.277,-1.135,-0.949,-72.870,-309.120,-54.600
-0.260,-1.103,-1.010,-83.020,-314.510,-51.590
-0.218,-1.045,-1.083,-83.160,-313.040,-48.860
-0.183,-0.976,-1.102,-77.700,-307.580,-47.810
-0.152,-0.906,-1.131,-66.220,-301.140,-48.230
-0.139,-0.895,-1.059,-43.050,-298.340,-51.870
-0.146,-0.993,-0.818,-34.300,-299.880,-56.980
-0.121,-1.101,-0.460,-39.060,-303.030,-58.590
-0.056,-1.182,-0.326,-48.650,-300.650,-53.550
0.008,-1.219,-0.332,-52.920,-293.720,-46.270
0.027,-1.249,-0.318,-53.060,-286.090,-39.270
0.114,-1.242,-0.338,-49.210,-276.080,-31.360
0.072,-1.172,-0.391,-37.030,-267.260,-23.310
0.071,-1.096,-0.382,-23.870,-256.060,-18.410
0.059,-1.041,-0.352,-8.890,-249.690,-20.650
0.053,-0.992,-0.320,5.740,-242.900,-26.740
0.087,-0.953,-0.306,25.620,-236.110,-30.800
0.118,-0.970,-0.203,36.890,-230.440,-32.830
0.135,-1.009,-0.049,40.740,-228.200,-34.160
0.144,-1.064,0.109,41.300,-230.300,-35.490
0.167,-1.165,0.370,29.400,-234.010,-34.440
0.239,-1.251,0.465,9.030,-237.300,-28.280
0.289,-1.272,0.407,-10.010,-237.860,-17.780
0.324,-1.193,0.274,-28.350,-228.760,-4.620
0.430,-1.066,0.092,-41.230,-213.220,10.780
0.345,-0.935,-0.040,-53.690,-202.370,25.060
0.272,-0.766,-0.118,-60.550,-193.900,29.540
0.243,-0.720,-0.160,-60.340,-184.030,26.600
0.220,-0.719,-0.115,-56.910,-174.930,20.650
0.194,-0.767,-0.009,-49.070,-163.730,18.270
0.169,-0.807,0.076,-39.480,-158.130,18.270
0.147,-0.830,0.160,-30.800,-155.540,17.290
0.161,-0.868,0.231,-24.920,-155.750,15.190
0.196,-0.893,0.297,-20.160,-158.340,14.070
0.224,-0.945,0.374,-19.740,-161.840,14.840
0.256,-0.942,0.413,-25.480,-165.900,18.830
0.304,-0.904,0.417,-37.590,-167.230,23.240
0.359,-0.815,0.378,-50.540,-167.300,26.390
0.376,-0.741,0.298,-61.530,-164.640,26.110
0.376,-0.673,0.245,-68.600,-160.580,24.710
0.329,-0.671,0.248,-70.140,-154.910,20.580
0.285,-0.721,0.293,-67.970,-150.430,15.470
0.240,-0.793,0.356,-61.320,-146.860,11.130
0.218,-0.875,0.412,-49.700,-144.200,8.540
0.211,-0.949,0.484,-37.100,-142.520,7.490
0.203,-1.007,0.558,-24.220,-142.520,8.120
0.191,-1.023,0.590,-16.380,-141.680,9.100
0.201,-1.011,0.615,-13.510,-138.180,11.970
0.223,-0.956,0.637,-16.590,-135.380,14.490
0.234,-0.891,0.633,-24.570,-129.360,14.560
0.240,-0.841,0.600,-35.630,-123.620,13.860
0.233,-0.809,0.569,-45.430,-119.280,12.530
0.221,-0.818,0.514,-53.060,-111.230,8.260
0.182,-0.861,0.505,-58.030,-106.190,7.000
0.146,-0.939,0.490,-58.800,-99.820,6.160
0.147,-1.037,0.510,-53.270,-92.890,4.410
0.135,-1.123,0.526,-44.380,-86.380,3.570
0.118,-1.175,0.554,-35.700,-81.270,3.850
0.107,-1.184,0.602,-26.600,-77.210,4.760
0.094,-1.171,0.641,-19.950,-74.200,5.600
0.077,-1.121,0.683,-15.750,-71.680,7.350
0.046,-1.055,0.710,-14.560,-71.190,9.240
0.025,-0.976,0.716,-15.890,-70.700,10.150
0.004,-0.905,0.723,-19.600,-69.580,11.060
-0.018,-0.879,0.697,-25.270,-66.850,11.760
-0.036,-0.902,0.634,-28.840,-63.070,10.640
-0.059,-0.976,0.581,-29.120,-58.450,8.540
-0.077,-1.014,0.542,-26.040,-52.010,7.070
-0.081,-1.036,0.525,-21.630,-44.380,6.300
-0.091,-1.048,0.524,-16.170,-34.370,5.040
-0.105,-1.050,0.529,-9.940,-27.790,3.990
-0.118,-1.042,0.533,-4.200,-21.980,3.990
-0.137,-1.013,0.530,-1.190,-17.710,4.620
-0.157,-0.963,0.525,-0.980,-14.210,4.060
-0.177,-0.906,0.526,-3.710,-11.690,2.800
-0.192,-0.897,0.517,-7.000,-10.290,2.170
-0.196,-0.899,0.501,-10.220,-9.100,1.750
-0.197,-0.920,0.487,-12.950,-8.470,1.120
-0.194,-0.954,0.446,-14.630,-7.490,0.070
-0.188,-0.981,0.406,-14.840,-6.020,-1.400
-0.189,-1.007,0.380,-13.370,-3.780,-3.150
-0.185,-1.043,0.340,-9.100,-0.560,-4.830
-0.181,-1.048,0.319,-4.270,2.870,-4.550
-0.191,-1.038,0.316,1.190,6.580,-3.360
-0.210,-1.025,0.328,6.370,9.030,-1.750
-0.227,-0.996,0.335,10.500,11.060,-0.070
-0.236,-0.962,0.335,12.460,12.460,0.840
-0.244,-0.929,0.344,10.430,13.510,1.050
-0.247,-0.895,0.345,7.210,13.790,0.140
-0.252,-0.888,0.348,4.060,13.160,-2.030
-0.256,-0.904,0.354,1.610,12.250,-4.410
-0.255,-0.932,0.349,-0.140,11.410,-5.950
-0.247,-0.948,0.336,-0.210,10.920,-5.460
-0.241,-0.952,0.323,0.350,11.060,-4.340
-0.248,-0.954,0.308,1.260,11.270,-3.850
-0.255,-0.955,0.286,1.820,12.110,-3.150
-0.252,-0.946,0.259,2.800,14.560,-2.310
-0.256,-0.940,0.234,3.780,16.310,-2.310
-0.258,-0.932,0.224,4.760,17.850,-2.520
-0.266,-0.928,0.226,6.510,19.250,-3.220
-0.272,-0.935,0.239,7.490,21.140,-4.130
-0.278,-0.928,0.264,7.140,21.980,-4.410
-0.285,-0.914,0.290,7.490,21.840,-5.110
-0.298,-0.913,0.304,6.510,21.350,-5.950
-0.316,-0.915,0.319,4.900,19.670,-6.860
-0.322,-0.926,0.305,4.060,18.340,-7.350
-0.315,-0.937,0.293,3.570,17.920,-7.630
-0.302,-0.939,0.269,2.030,18.130,-7.210
-0.285,-0.933,0.250,1.120,18.690,-6.440
-0.276,-0.942,0.228,1.540,19.110,-5.740
-0.270,-0.938,0.198,2.940,20.440,-4.620
-0.261,-0.922,0.181,4.270,21.980,-3.080
-0.269,-0.917,0.194,4.550,22.470,-2.170
-0.278,-0.913,0.206,4.830,22.400,-2.240
-0.284,-0.921,0.214,5.460,22.190,-2.660
-0.290,-0.933,0.224,5.810,22.470,-2.870
-0.300,-0.940,0.238,5.390,22.190,-3.010
-0.304,-0.945,0.248,5.460,21.630,-3.710
-0.302,-0.943,0.260,4.970,20.860,-4.060
-0.300,-0.932,0.263,4.200,19.110,-4.200
-0.297,-0.920,0.261,2.870,17.920,-4.130
-0.290,-0.906,0.262,1.330,16.730,-3.850
-0.290,-0.898,0.251,-0.280,15.540,-3.920
-0.296,-0.902,0.238,-1.540,14.700,-3.850
-0.292,-0.907,0.221,-1.890,14.280,-3.360
-0.287,-0.908,0.201,-1.330,14.490,-2.730
-0.289,-0.907,0.192,-1.400,15.120,-2.380
-0.284,-0.904,0.193,-1.610,15.540,-1.540
-0.284,-0.907,0.194,-1.260,15.610,-1.610
-0.296,-0.916,0.197,0.000,15.470,-1.610
-0.295,-0.926,0.206,1.400,15.820,-1.680
-0.291,-0.926,0.222,1.820,16.380,-1.190
-0.293,-0.922,0.237,0.910,16.660,-0.700
-0.302,-0.919,0.244,0.000,16.520,-0.840
-0.305,-0.914,0.244,-2.100,16.100,-0.700
-0.306,-0.902,0.235,-3.500,15.890,-0.980
-0.309,-0.890,0.236,-5.740,15.680,-1.260
-0.311,-0.889,0.233,-8.120,15.330,-2.310
-0.310,-0.905,0.224,-9.030,15.330,-3.150
-0.309,-0.927,0.211,-8.330,15.050,-3.360
-0.318,-0.947,0.198,-6.370,14.980,-3.570
-0.323,-0.951,0.194,-3.780,14.630,-3.710
-0.329,-0.949,0.200,-1.540,14.630,-3.850
-0.327,-0.941,0.210,-1.050,14.910,-3.500
-0.322,-0.934,0.220,-0.630,14.910,-3.010
-0.324,-0.928,0.220,0.210,14.700,-3.150
-0.331,-0.924,0.222,0.840,14.700,-3.500
-0.334,-0.924,0.219,0.630,14.700,-4.480
-0.329,-0.924,0.216,-0.140,14.630,-5.390
-0.323,-0.928,0.210,-0.770,14.350,-6.300
-0.322,-0.937,0.216,-1.260,14.140,-6.860
-0.308,-0.949,0.221,-0.980,13.650,-6.720
-0.298,-0.963,0.223,-0.490,13.510,-6.300
-0.294,-0.968,0.224,-0.630,12.810,-5.040
-0.290,-0.971,0.220,-0.280,12.740,-3.990
-0.278,-0.971,0.222,-0.350,12.040,-3.010
-0.272,-0.967,0.211,-0.420,12.040,-2.660
-0.275,-0.956,0.215,-1.260,11.900,-0.630
-0.274,-0.954,0.206,-2.520,12.250,0.630
-0.268,-0.951,0.210,-3.290,12.460,0.770
-0.266,-0.947,0.212,-3.500,12.810,0.630
-0.270,-0.954,0.219,-4.130,12.810,1.330
-0.277,-0.967,0.216,-3.850,12.600,1.190
-0.277,-0.966,0.218,-3.780,12.180,2.030
-0.269,-0.969,0.220,-3.360,11.760,2.240
-0.273,-0.975,0.225,-2.380,11.550,2.450
-0.270,-0.975,0.231,-1.610,11.340,2.030
-0.267,-0.967,0.238,-0.910,11.060,2.240
-0.265,-0.966,0.239,-0.770,11.060,2.240
-0.261,-0.961,0.237,-1.050,11.340,2.310
-0.260,-0.956,0.236,-1.400,11.340,1.960
-0.268,-0.952,0.231,-1.680,11.550,1.470
-0.269,-0.947,0.229,-2.380,11.760,1.610
-0.264,-0.935,0.220,-2.240,12.250,1.610
-0.264,-0.933,0.213,-2.310,12.740,1.540
-0.271,-0.943,0.210,-1.610,13.090,1.400
-0.270,-0.954,0.210,-0.910,13.160,1.820
-0.260,-0.959,0.217,-0.350,13.510,2.310
-0.249,-0.956,0.231,-0.140,13.930,2.660
-0.240,-0.953,0.240,0.000,14.000,2.800
-0.235,-0.953,0.244,0.140,14.210,3.360

-1.068,-0.748,-0.537,-14.560,119.910,8.120
-0.930,-0.767,-0.577,-38.150,118.860,9.730
-0.962,-0.740,-0.589,-50.960,113.400,7.630
-0.976,-0.768,-0.615,-57.680,107.310,4.970
-0.961,-0.798,-0.620,-58.870,105.910,3.850
-0.898,-0.821,-0.644,-55.930,101.570,4.200
-0.963,-0.815,-0.702,-53.970,93.030,4.970
-1.008,-0.806,-0.766,-53.620,85.680,4.900
-0.991,-0.822,-0.840,-55.300,79.310,3.990
-1.018,-0.827,-0.961,-59.500,71.960,3.710
-1.015,-0.819,-1.074,-66.500,64.820,2.940
-0.995,-0.796,-1.198,-73.080,56.490,1.330
-0.976,-0.768,-1.300,-81.130,45.500,-0.490
-0.951,-0.745,-1.347,-86.100,27.790,-4.130
-0.900,-0.776,-1.340,-81.340,-7.840,-8.960
-0.797,-0.823,-1.355,-70.560,-42.350,-10.920
-0.721,-0.888,-1.302,-52.220,-81.410,-12.320
-0.652,-0.982,-1.241,-24.500,-122.150,-11.340
-0.578,-0.994,-1.204,-10.360,-158.830,-9.310
-0.517,-0.960,-1.148,-8.890,-198.800,-7.420
-0.454,-0.918,-1.054,-16.310,-223.440,-9.310
-0.416,-0.917,-0.955,-32.900,-244.230,-15.400
-0.397,-0.926,-0.911,-61.950,-261.170,-25.900
-0.381,-0.905,-0.874,-81.410,-274.260,-34.160
-0.353,-0.879,-0.851,-95.830,-285.180,-42.350
-0.348,-0.870,-0.770,-104.230,-297.010,-49.980
-0.328,-0.878,-0.661,-111.580,-301.560,-55.860
-0.277,-0.890,-0.572,-116.900,-302.820,-61.880
-0.213,-0.932,-0.533,-114.590,-301.910,-64.680
-0.148,-0.954,-0.529,-103.460,-300.090,-64.680
-0.084,-1.005,-0.440,-85.050,-294.700,-62.020
0.014,-1.060,-0.390,-61.600,-290.640,-56.910
0.100,-1.097,-0.375,-35.000,-283.710,-50.330
0.217,-1.099,-0.344,-10.290,-270.480,-40.320
0.284,-1.044,-0.296,14.630,-262.010,-35.840
0.221,-1.028,-0.129,26.040,-257.180,-34.650
0.210,-1.059,-0.030,32.900,-251.580,-34.020
0.225,-1.098,0.290,35.770,-246.470,-32.970
0.191,-1.194,0.503,24.500,-241.430,-31.150
0.297,-1.291,0.528,8.120,-234.850,-23.870
0.391,-1.291,0.512,-4.970,-224.700,-12.180
0.456,-1.260,0.515,-16.100,-214.830,0.420
0.493,-1.148,0.465,-25.130,-202.580,16.940
0.504,-0.949,0.446,-36.470,-190.190,28.350
0.506,-0.846,0.459,-47.670,-179.830,35.560
0.487,-0.776,0.458,-58.380,-170.870,38.430
0.470,-0.732,0.447,-63.210,-163.450,36.540
0.432,-0.747,0.476,-65.870,-158.340,32.620
0.405,-0.780,0.382,-64.190,-156.170,30.100
0.370,-0.815,0.533,-59.290,-153.160,28.700
0.345,-0.849,0.574,-51.100,-154.560,27.440
0.315,-0.914,0.598,-42.490,-155.120,25.270
0.306,-0.956,0.613,-37.870,-153.440,24.640
0.310,-0.953,0.632,-38.220,-151.690,26.250
0.337,-0.950,0.637,-40.880,-148.120,28.980
0.299,-0.939,0.661,-40.460,-145.390,26.320
0.283,-0.952,0.672,-38.780,-141.890,23.450
0.279,-0.935,0.646,-35.560,-136.150,23.660
0.286,-0.904,0.637,-32.410,-129.920,25.550
0.264,-0.891,0.623,-30.870,-122.500,25.620
0.232,-0.848,0.626,-29.610,-117.040,25.060
0.360,-0.853,0.587,-19.810,-87.010,12.880
0.307,-0.827,0.625,-19.460,-93.520,2.380
0.079,-0.835,0.639,-22.610,-92.330,4.550
0.058,-0.861,0.642,-24.570,-90.090,11.060
0.024,-0.919,0.623,-27.020,-85.610,12.250
0.033,-0.915,0.590,-28.140,-79.730,10.920
0.039,-0.934,0.562,-27.860,-73.010,9.870
0.011,-0.967,0.545,-24.640,-66.850,9.660
-0.033,-0.975,0.541,-20.580,-60.690,10.290
-0.073,-0.980,0.553,-15.190,-55.300,9.450
-0.115,-0.982,0.550,-9.380,-49.490,7.980
-0.151,-0.970,0.555,-4.480,-41.650,6.300
-0.208,-0.955,0.559,-2.520,-35.630,3.640
-0.205,-0.930,0.567,-1.750,-30.660,1.470
-0.273,-0.948,0.553,-1.680,-28.560,0.630
-0.283,-0.959,0.537,-1.820,-25.480,0.560
-0.278,-0.946,0.525,-2.520,-22.120,0.280
-0.264,-0.919,0.498,-3.360,-18.130,-0.210
-0.256,-0.909,0.478,-4.060,-14.140,-0.210
-0.256,-0.915,0.458,-4.130,-11.200,0.700
-0.262,-0.929,0.408,-2.660,-7.000,1.190
-0.261,-0.931,0.394,-1.330,-4.270,1.190
-0.261,-0.932,0.383,-0.910,-1.260,0.910
-0.254,-0.935,0.379,0.490,0.910,0.840
-0.251,-0.957,0.378,2.660,2.870,1.050
-0.250,-0.972,0.373,5.670,4.760,2.240
-0.254,-0.964,0.386,7.350,5.530,1.330
-0.264,-0.952,0.391,8.470,5.460,-1.050
-0.270,-0.942,0.390,8.680,5.040,-3.990
-0.276,-0.937,0.385,9.030,4.550,-6.720
-0.287,-0.945,0.385,8.260,3.990,-8.260
-0.294,-0.939,0.394,6.650,3.640,-8.540
-0.293,-0.940,0.374,6.370,3.010,-8.750
-0.285,-0.949,0.345,6.790,2.520,-9.100
-0.279,-0.950,0.312,7.840,3.150,-8.680
-0.272,-0.937,0.291,8.260,4.410,-7.490
-0.273,-0.924,0.287,9.450,5.880,-5.880
-0.279,-0.928,0.291,11.200,7.070,-4.480
-0.281,-0.928,0.299,13.230,8.330,-2.590
-0.283,-0.927,0.309,15.120,9.450,-0.840
-0.293,-0.918,0.326,15.050,10.150,-0.280
-0.298,-0.910,0.341,14.280,10.360,-0.140
-0.291,-0.907,0.344,13.510,10.360,-0.140
-0.288,-0.902,0.354,10.990,10.500,0.280
-0.287,-0.883,0.367,8.120,9.940,0.560
-0.294,-0.871,0.370,5.670,9.030,0.350
-0.303,-0.871,0.354,3.570,8.540,-0.350
-0.307,-0.874,0.344,1.190,8.190,-0.770
-0.315,-0.879,0.316,0.070,8.120,-1.120
-0.324,-0.888,0.290,1.120,8.820,-1.960
-0.327,-0.899,0.284,3.150,9.800,-2.450
-0.325,-0.900,0.282,5.180,10.920,-2.660
-0.322,-0.902,0.291,7.560,11.550,-2.310
-0.315,-0.904,0.294,11.130,11.760,-1.890
-0.306,-0.899,0.295,13.930,11.690,-1.890
-0.293,-0.889,0.291,14.490,12.180,-1.400
-0.282,-0.857,0.315,11.550,12.390,-0.280
-0.282,-0.839,0.329,8.120,11.690,-0.350
-0.295,-0.834,0.331,5.320,10.570,-1.400
-0.318,-0.835,0.320,3.220,8.610,-2.450
-0.329,-0.844,0.300,2.030,7.350,-3.150
-0.331,-0.851,0.285,1.330,6.370,-3.990
-0.335,-0.862,0.278,0.840,5.600,-4.900
-0.339,-0.873,0.268,0.560,4.830,-5.740
-0.335,-0.883,0.264,1.330,4.550,-5.880
-0.324,-0.895,0.254,2.310,4.410,-5.530
-0.310,-0.901,0.244,4.900,3.990,-4.830
-0.308,-0.903,0.245,7.140,4.060,-4.760
-0.307,-0.895,0.267,6.720,4.760,-4.200
-0.314,-0.882,0.290,4.900,5.040,-3.640
-0.324,-0.873,0.309,2.520,5.320,-3.360
-0.334,-0.870,0.329,-0.420,4.830,-3.360
-0.346,-0.872,0.333,-2.100,4.340,-3.850
-0.361,-0.879,0.327,-3.080,3.710,-4.340
-0.375,-0.883,0.317,-3.850,2.730,-4.620
-0.377,-0.887,0.301,-4.620,2.170,-4.970
-0.364,-0.903,0.288,-4.480,1.890,-5.180
-0.349,-0.923,0.283,-3.640,2.030,-4.620
-0.336,-0.941,0.279,-2.310,2.240,-3.290
-0.328,-0.948,0.285,-1.050,2.380,-1.960
-0.326,-0.945,0.289,-0.070,2.870,-1.050
-0.327,-0.939,0.282,0.560,3.150,-0.420
-0.331,-0.934,0.288,0.560,3.430,0.070
-0.334,-0.926,0.295,0.070,3.710,0.140
-0.342,-0.914,0.307,-0.350,3.500,0.070
-0.346,-0.904,0.317,-1.120,3.080,0.140
-0.351,-0.899,0.321,-1.190,2.590,-0.140
-0.354,-0.899,0.319,-0.980,1.750,-0.700
-0.351,-0.899,0.319,-1.190,1.330,-1.540
-0.349,-0.901,0.315,-0.770,0.700,-1.820
-0.345,-0.908,0.305,-0.630,0.140,-2.310
-0.339,-0.914,0.302,-0.280,-0.070,-2.730
-0.333,-0.916,0.309,-0.490,-0.420,-3.080
-0.329,-0.915,0.306,-0.630,-0.070,-3.290
-0.320,-0.916,0.300,-0.350,-0.070,-3.290
-0.324,-0.908,0.297,0.560,0.280,-3.290
-0.325,-0.905,0.297,1.680,0.770,-3.290
-0.326,-0.899,0.308,1.890,0.980,-3.220
-0.328,-0.892,0.310,2.240,1.260,-3.220
-0.329,-0.893,0.313,2.380,1.680,-3.850
-0.331,-0.891,0.319,1.890,2.030,-4.130
-0.331,-0.886,0.326,0.910,1.890,-4.270
-0.333,-0.890,0.322,0.910,1.750,-4.690
-0.331,-0.893,0.319,1.050,1.680,-5.040
-0.332,-0.895,0.320,0.490,1.540,-5.180
-0.329,-0.893,0.320,-0.070,1.400,-5.390
-0.325,-0.899,0.314,-0.840,1.260,-5.530
-0.317,-0.905,0.314,-2.590,1.610,-5.250
-0.310,-0.915,0.309,-3.080,2.170,-4.970
-0.308,-0.921,0.303,-2.450,2.520,-4.480
-0.305,-0.921,0.302,-1.470,2.730,-3.990
-0.308,-0.913,0.310,-0.840,3.080,-3.150
-0.314,-0.897,0.311,-0.770,3.150,-1.890
-0.320,-0.892,0.306,-0.630,3.150,-1.540
-0.324,-0.893,0.312,-0.420,3.080,-1.750
-0.329,-0.898,0.312,0.210,2.800,-2.170
-0.330,-0.910,0.312,0.350,2.450,-2.520
-0.333,-0.919,0.312,-0.210,2.590,-2.590
-0.329,-0.919,0.317,-1.820,2.380,-2.170
-0.323,-0.919,0.316,-2.660,1.890,-2.170
-0.319,-0.915,0.308,-2.520,1.400,-2.660
-0.313,-0.913,0.305,-4.200,1.680,-2.520
-0.303,-0.912,0.298,-6.440,1.540,-1.820
-0.299,-0.920,0.277,-6.580,2.030,-1.330
-0.301,-0.934,0.268,-5.110,2.940,-0.910
-0.305,-0.943,0.276,-2.590,3.500,0.000
-0.306,-0.938,0.290,-0.420,3.500,1.050
-0.305,-0.932,0.295,0.770,3.430,1.260
-0.314,-0.915,0.312,0.980,3.360,1.400
-0.330,-0.925,0.325,-0.910,1.960,0.840
-0.333,-0.920,0.318,-0.280,0.630,-0.070
-0.335,-0.923,0.311,0.630,-0.630,-0.700
-0.330,-0.915,0.303,2.170,-2.170,-0.910
-0.321,-0.919,0.303,2.450,-2.590,-1.120
-0.315,-0.927,0.297,1.330,-2.590,-0.840
-0.305,-0.924,0.298,-0.980,-2.590,-0.070
-0.293,-0.916,0.288,-2.940,-2.730,0.280
-0.294,-0.915,0.281,-2.870,-2.590,-0.210

-0.806,-0.911,-0.695,-12.810,199.990,-30.940
-0.863,-0.966,-0.921,-1.120,213.150,-29.050
-0.860,-1.009,-1.020,15.120,221.060,-26.040
-0.899,-1.059,-1.136,36.120,225.750,-25.690
-1.031,-1.078,-1.210,51.940,228.340,-23.380
-1.130,-1.015,-1.259,59.360,227.570,-20.650
-1.226,-0.967,-1.240,53.410,223.160,-22.120
-1.240,-0.958,-1.205,34.860,210.910,-23.590
-1.123,-0.996,-1.160,12.670,191.800,-24.500
-1.021,-1.105,-1.075,-9.940,144.690,-24.570
-0.911,-1.237,-1.069,-27.440,99.680,-24.640
-0.813,-1.371,-1.238,-42.350,51.870,-17.640
-0.721,-1.446,-1.475,-59.710,9.100,-5.600
-0.612,-1.458,-1.731,-70.420,-25.550,1.260
-0.547,-1.447,-1.949,-78.400,-55.650,7.630
-0.502,-1.469,-2.074,-79.520,-97.580,14.210
-0.446,-1.486,-2.045,-69.300,-134.120,21.000
-0.389,-1.468,-1.947,-58.870,-174.650,30.730
-0.344,-1.373,-1.830,-43.400,-217.420,41.650
-0.319,-1.329,-1.662,-31.990,-262.710,45.080
-0.294,-1.339,-1.410,-24.570,-309.260,44.940
-0.263,-1.344,-1.002,-23.100,-368.900,43.610
-0.241,-1.358,-0.661,-34.020,-406.420,41.300
-0.199,-1.356,-0.421,-57.190,-435.400,38.290
-0.171,-1.292,-0.228,-87.850,-456.400,37.520
-0.118,-1.286,-0.172,-107.030,-469.140,38.010
-0.080,-1.243,-0.237,-116.410,-468.860,41.020
0.163,-1.107,-0.482,-112.210,-444.780,46.340
0.263,-1.054,-0.617,-93.940,-429.450,49.140
0.214,-1.024,-0.646,-64.470,-420.910,47.880
0.201,-1.048,-0.513,-33.740,-417.550,45.920
0.237,-1.140,-0.245,-1.680,-414.400,46.760
0.286,-1.213,0.056,13.650,-411.320,51.730
0.355,-1.223,0.264,23.520,-408.100,60.830
0.419,-1.143,0.413,29.820,-402.080,73.010
0.496,-1.051,0.616,23.380,-392.000,83.650
0.522,-0.966,0.674,8.330,-377.160,91.980
0.546,-0.915,0.617,-7.700,-361.200,95.690
0.531,-0.855,0.524,-16.450,-340.410,95.270
0.521,-0.814,0.440,-25.620,-316.750,89.250
0.508,-0.776,0.391,-37.800,-293.020,76.650
0.505,-0.711,0.363,-40.250,-272.090,64.750
0.490,-0.740,0.434,-38.570,-256.760,53.270
0.478,-0.841,0.552,-34.300,-245.000,45.990
0.504,-0.917,0.656,-28.070,-231.980,45.220
0.553,-0.905,0.765,-20.930,-209.020,48.720
0.581,-0.838,0.843,-15.330,-191.310,53.060
0.559,-0.769,0.896,-13.580,-174.370,54.530
0.509,-0.729,0.940,-14.980,-159.740,52.220
0.459,-0.708,0.955,-17.640,-146.510,49.140
0.414,-0.685,0.954,-21.630,-134.820,46.760
0.364,-0.693,0.943,-25.270,-125.370,44.940
0.319,-0.729,0.924,-25.760,-118.440,42.210
0.289,-0.770,0.903,-27.090,-112.700,39.830
0.288,-0.785,0.838,-27.510,-106.260,38.570
0.305,-0.794,0.767,-26.250,-99.260,37.310
0.304,-0.788,0.730,-22.540,-90.720,35.700
0.254,-0.791,0.721,-20.650,-85.820,34.020
0.209,-0.787,0.747,-20.650,-82.460,33.040
0.170,-0.783,0.798,-21.280,-80.220,32.270
0.134,-0.794,0.841,-21.490,-77.490,31.080
0.099,-0.801,0.867,-21.210,-73.850,29.610
0.062,-0.799,0.885,-20.650,-69.510,26.530
0.032,-0.784,0.901,-15.610,-64.820,23.940
-0.009,-0.764,0.885,-10.850,-60.130,21.770
-0.061,-0.741,0.759,0.000,-20.580,-6.230
0.043,-0.663,0.841,-5.810,-15.820,-4.340
-0.118,-0.683,0.782,-8.680,-33.250,1.680
-0.102,-0.701,0.699,-14.770,-31.990,8.260
-0.056,-0.691,0.645,-19.390,-25.760,10.080
-0.036,-0.696,0.608,-22.190,-19.600,8.890
-0.038,-0.752,0.593,-22.050,-14.490,9.170
-0.056,-0.791,0.590,-19.670,-9.730,9.380
-0.074,-0.805,0.597,-17.290,-5.180,10.010
-0.091,-0.800,0.605,-14.700,17.080,10.150
-0.123,-0.807,0.611,-12.180,3.500,9.100
-0.152,-0.827,0.604,-7.980,5.670,6.930
-0.174,-0.851,0.584,-2.730,7.140,4.760
-0.182,-0.855,0.569,1.190,8.540,3.780
-0.180,-0.844,0.556,3.360,9.590,3.080
-0.167,-0.838,0.558,3.920,10.150,2.450
-0.157,-0.832,0.560,4.270,9.100,1.820
-0.153,-0.820,0.560,3.360,7.140,1.400
-0.150,-0.794,0.564,0.280,4.970,1.050
-0.160,-0.791,0.564,-2.520,2.100,-0.560
-0.172,-0.808,0.570,-4.480,-2.100,-3.360
-0.189,-0.813,0.574,-5.880,-8.120,-6.860
-0.210,-0.814,0.571,-6.790,-11.200,-10.570
-0.208,-0.820,0.558,-7.140,-14.140,-12.810
-0.211,-0.823,0.544,-7.140,-14.000,-14.770
-0.193,-0.837,0.526,-6.090,-9.380,-15.050
-0.176,-0.855,0.505,-3.920,-4.690,-14.490
-0.171,-0.876,0.497,-1.470,-1.120,-13.720
-0.173,-0.883,0.506,-0.210,1.540,-12.810
-0.178,-0.880,0.502,0.350,2.730,-12.110
-0.182,-0.878,0.504,1.260,3.290,-11.760
-0.182,-0.887,0.506,2.030,4.060,-11.480
-0.179,-0.886,0.517,3.850,6.090,-10.430
-0.183,-0.870,0.532,4.480,8.470,-9.170
-0.196,-0.864,0.546,6.090,10.570,-7.770
-0.205,-0.859,0.545,7.490,11.690,-6.510
-0.218,-0.856,0.539,7.280,12.530,-5.740
-0.224,-0.832,0.550,4.410,12.950,-3.850
-0.224,-0.825,0.549,2.100,12.250,-2.730
-0.224,-0.840,0.539,0.070,11.060,-2.450
-0.220,-0.846,0.525,-0.700,10.640,-2.170
-0.216,-0.842,0.508,-0.840,10.780,-1.610
-0.208,-0.844,0.498,-0.420,11.550,-0.280
-0.204,-0.854,0.501,-0.560,12.180,0.630
-0.205,-0.861,0.499,0.210,12.950,1.400
-0.219,-0.873,0.499,1.470,13.440,1.190
-0.236,-0.884,0.502,2.520,13.650,0.840
-0.246,-0.870,0.518,3.710,13.510,0.980
-0.244,-0.857,0.532,4.270,12.740,0.910
-0.242,-0.846,0.546,4.130,11.970,0.910
-0.248,-0.839,0.550,3.780,11.480,0.560
-0.251,-0.843,0.544,3.430,10.990,-0.070
-0.244,-0.840,0.540,1.470,10.920,-0.420
-0.241,-0.819,0.533,-0.630,10.990,-0.280
-0.241,-0.815,0.528,-2.100,10.430,-0.980
-0.243,-0.829,0.520,-3.500,9.800,-1.680
-0.241,-0.827,0.511,-4.270,9.870,-1.750
-0.237,-0.828,0.498,-4.970,10.570,-1.330
-0.240,-0.828,0.488,-5.880,11.550,-1.120
-0.250,-0.821,0.478,-6.930,12.250,-0.840
-0.251,-0.812,0.475,-7.700,12.530,-1.050
-0.262,-0.813,0.469,-8.190,12.180,-1.540
-0.267,-0.820,0.460,-7.280,11.690,-2.380
-0.272,-0.838,0.457,-3.570,11.200,-2.870
-0.276,-0.841,0.457,-0.350,10.990,-3.430
-0.283,-0.846,0.476,1.540,10.570,-3.920
-0.294,-0.841,0.500,2.730,9.100,-4.410
-0.305,-0.840,0.512,2.870,7.910,-5.110
-0.298,-0.840,0.511,2.870,6.860,-5.600
-0.290,-0.844,0.501,2.940,6.090,-5.530
-0.282,-0.841,0.494,2.380,6.300,-5.670
-0.276,-0.816,0.493,0.560,6.720,-4.830
-0.269,-0.801,0.479,-1.680,7.070,-4.340
-0.264,-0.805,0.465,-2.310,7.350,-4.410
-0.266,-0.810,0.457,-2.660,7.420,-4.340
-0.266,-0.816,0.458,-2.240,7.140,-4.690
-0.271,-0.823,0.470,-1.680,7.000,-4.900
-0.288,-0.838,0.476,-0.840,6.790,-5.600
-0.300,-0.851,0.485,-0.070,6.370,-5.950
-0.301,-0.850,0.484,1.260,6.090,-5.810
-0.288,-0.846,0.480,2.660,5.950,-4.830
-0.275,-0.846,0.467,4.270,6.090,-4.410
-0.276,-0.844,0.468,5.530,6.020,-4.200
-0.284,-0.834,0.469,4.480,6.090,-4.130
-0.278,-0.801,0.488,0.770,6.510,-3.220
-0.277,-0.794,0.493,-2.870,6.720,-3.710
-0.280,-0.810,0.500,-6.510,6.370,-4.620
-0.281,-0.815,0.494,-8.890,6.370,-5.110
-0.276,-0.821,0.479,-9.520,6.860,-5.180
-0.278,-0.822,0.465,-8.610,7.630,-4.270
-0.280,-0.827,0.456,-7.280,8.050,-3.570
-0.286,-0.828,0.462,-6.650,7.630,-3.010
-0.287,-0.838,0.467,-5.250,6.930,-3.220
-0.287,-0.857,0.467,-3.080,6.300,-4.200
-0.290,-0.865,0.466,-1.190,6.650,-4.900
-0.283,-0.860,0.470,0.630,7.490,-5.180
-0.283,-0.854,0.473,1.820,8.400,-5.670
-0.287,-0.840,0.485,2.240,8.400,-6.440
-0.291,-0.831,0.488,1.960,8.540,-7.350
-0.289,-0.825,0.491,0.840,8.330,-8.120
-0.285,-0.821,0.488,-0.910,8.190,-8.330
-0.274,-0.826,0.482,-2.100,8.260,-8.540
-0.262,-0.838,0.477,-2.660,9.310,-8.960
-0.248,-0.845,0.478,-3.080,10.220,-8.470
-0.245,-0.852,0.481,-2.940,11.060,-7.420
-0.240,-0.856,0.491,-2.940,12.180,-6.510
-0.241,-0.851,0.496,-2.940,13.090,-5.110
-0.242,-0.854,0.498,-2.730,13.790,-4.410
-0.244,-0.843,0.503,-1.960,14.140,-3.990
-0.252,-0.841,0.502,-1.960,14.630,-4.060
-0.262,-0.840,0.497,-1.960,15.190,-4.620
-0.267,-0.842,0.501,-3.500,15.330,-5.110
-0.265,-0.834,0.508,-5.600,15.400,-5.320
-0.265,-0.842,0.512,-8.260,15.540,-6.090
-0.266,-0.857,0.506,-9.030,15.400,-6.720
-0.264,-0.867,0.502,-8.470,15.540,-6.720
-0.262,-0.869,0.491,-7.840,16.730,-6.720
-0.264,-0.872,0.482,-7.630,19.180,-6.370
-0.271,-0.871,0.468,-7.070,20.300,-5.740
-0.284,-0.869,0.456,-5.600,20.650,-5.530
-0.293,-0.864,0.452,-3.780,20.300,-5.390
-0.305,-0.857,0.454,-2.520,19.740,-5.880
-0.310,-0.856,0.460,-1.890,18.760,-6.440
-0.310,-0.862,0.462,-1.610,17.710,-7.210
-0.308,-0.871,0.474,-2.170,16.380,-7.560
-0.293,-0.874,0.490,-3.500,15.400,-7.280
-0.275,-0.885,0.488,-4.760,14.700,-7.350
-0.263,-0.891,0.491,-5.250,14.210,-6.790
-0.250,-0.898,0.484,-4.830,14.700,-5.880
-0.248,-0.894,0.477,-3.920,15.260,-5.180
-0.253,-0.892,0.467,-2.520,16.030,-4.690
-0.262,-0.886,0.459,-1.890,17.150,-4.480
-0.264,-0.883,0.448,-0.910,17.710,-4.340
-0.266,-0.879,0.442,-0.210,18.340,-4.340

-0.923,-0.729,-0.674,-25.410,112.840,-28.700
-0.936,-0.752,-0.716,-21.630,114.660,-28.000
-0.959,-0.775,-0.718,-17.920,126.910,-26.600
-0.946,-0.791,-0.752,-17.780,127.190,-29.120
-1.055,-0.767,-0.795,-18.410,121.100,-32.900
-1.038,-0.763,-0.810,-21.420,112.700,-37.030
-0.927,-0.817,-0.836,-51.800,97.930,-38.430
-0.925,-0.808,-0.791,-56.700,78.120,-40.390
-0.846,-0.843,-0.846,-68.110,54.670,-42.630
-0.783,-0.888,-0.892,-77.420,25.410,-44.520
-0.671,-0.937,-0.927,-82.950,5.740,-47.740
-0.613,-0.977,-0.972,-84.490,-15.470,-49.420
-0.576,-1.213,-1.056,-67.480,-36.400,-52.850
-0.527,-1.240,-1.149,-45.080,-57.120,-51.240
-0.466,-1.282,-1.171,-22.260,-86.730,-46.130
-0.385,-1.301,-1.108,-4.270,-109.970,-40.880
-0.349,-1.300,-1.046,10.500,-134.190,-35.070
-0.327,-1.297,-0.944,19.950,-160.090,-27.510
-0.315,-1.259,-0.835,21.560,-186.270,-18.340
-0.301,-1.223,-0.746,14.840,-210.840,-10.850
-0.282,-1.139,-0.669,3.430,-233.380,-2.940
-0.248,-1.087,-0.620,-7.980,-257.810,0.840
-0.218,-1.056,-0.649,-15.680,-271.250,3.570
-0.182,-1.032,-0.698,-16.730,-281.960,6.650
-0.143,-1.005,-0.734,-9.380,-290.360,5.600
-0.107,-0.992,-0.683,-2.310,-296.800,1.960
-0.068,-1.031,-0.586,1.260,-303.170,-3.780
-0.044,-1.074,-0.353,2.730,-313.460,-11.620
-0.016,-1.162,-0.135,3.640,-322.070,-16.100
0.046,-1.275,-0.010,2.730,-329.770,-16.310
0.102,-1.292,0.040,3.080,-334.530,-8.400
0.142,-1.189,0.061,2.590,-336.700,-1.400
0.210,-1.088,0.041,1.330,-334.670,1.750
0.329,-0.991,0.028,-1.120,-328.300,2.940
0.382,-0.904,-0.034,-5.740,-326.830,4.830
0.388,-0.839,-0.110,-5.390,-319.130,7.700
0.433,-0.863,-0.020,-7.980,-313.810,8.890
0.455,-0.953,0.108,-10.220,-313.250,10.710
0.497,-1.071,0.272,-13.790,-311.150,16.310
0.560,-1.373,0.372,-16.030,-298.690,28.280
0.683,-1.289,0.438,-5.600,-281.890,46.690
0.720,-1.220,0.490,5.600,-262.710,64.890
0.702,-1.056,0.611,11.200,-245.210,81.410
0.650,-0.888,0.683,8.540,-229.460,91.910
0.583,-0.758,0.751,-1.470,-198.660,96.880
0.486,-0.642,0.817,-19.950,-202.370,98.280
0.399,-0.578,0.811,-41.300,-194.810,94.570
0.318,-0.623,0.794,-61.320,-189.910,85.470
0.271,-0.706,0.740,-74.760,-184.590,73.010
0.265,-0.805,0.700,-78.820,-177.170,58.380
0.289,-0.911,0.691,-73.080,-171.990,53.620
0.293,-0.989,0.717,-63.700,-167.860,51.520
0.308,-1.045,0.746,-54.040,-163.520,53.620
0.348,-1.040,0.782,-42.700,-157.640,59.010
0.379,-1.006,0.824,-33.180,-150.150,65.030
0.389,-0.941,0.864,-29.330,-141.680,70.420
0.371,-0.850,0.913,-27.930,-130.550,73.430
0.318,-0.799,0.921,-27.790,-122.920,72.240
0.257,-0.763,0.920,-27.090,-116.620,69.090
0.199,-0.734,0.904,-29.820,-110.110,64.680
0.154,-0.702,0.873,-34.790,-99.960,52.150
0.165,-0.729,0.807,-36.190,-60.200,29.540
0.187,-0.731,0.833,-39.830,-71.050,27.580
-0.004,-0.785,0.803,-40.530,-80.430,26.530
-0.042,-0.814,0.752,-38.430,-77.560,26.950
-0.019,-0.854,0.699,-32.200,-69.230,23.660
-0.012,-0.869,0.674,-23.520,-62.860,19.110
0.004,-0.859,0.657,-16.030,-56.070,15.330
0.007,-0.844,0.654,-11.200,-49.980,12.670
-0.002,-0.826,0.665,-9.450,-44.940,9.940
-0.028,-0.795,0.684,-10.640,-41.160,8.470
-0.051,-0.790,0.695,-11.340,-37.940,7.280
-0.071,-0.793,0.687,-10.570,-35.000,6.580
-0.100,-0.792,0.679,-8.960,-31.220,6.370
-0.132,-0.792,0.668,-7.210,-29.120,5.600
-0.157,-0.790,0.649,-6.510,-27.370,4.550
-0.174,-0.793,0.626,-6.860,-25.060,2.590
-0.181,-0.831,0.593,-7.140,-23.030,1.330
-0.181,-0.858,0.548,-6.440,-21.210,1.330
-0.176,-0.857,0.512,-5.950,-18.830,1.890
-0.172,-0.842,0.491,-5.110,-14.630,1.960
-0.179,-0.844,0.485,-2.170,-11.760,1.330
-0.192,-0.856,0.496,0.000,-10.150,1.680
-0.203,-0.845,0.521,1.190,-9.590,3.080
-0.214,-0.821,0.542,-1.050,-9.870,4.620
-0.214,-0.795,0.567,-3.780,-11.620,5.530
-0.216,-0.802,0.570,-5.600,-13.860,5.740
-0.228,-0.820,0.562,-6.230,-14.140,4.480
-0.234,-0.830,0.539,-6.720,-11.550,3.360
-0.234,-0.835,0.517,-6.930,-8.890,3.430
-0.234,-0.850,0.493,-5.670,-7.000,1.470
-0.250,-0.881,0.462,-2.100,-4.760,-4.060
-0.256,-0.896,0.442,1.120,-1.750,-7.140
-0.242,-0.897,0.431,3.010,1.050,-8.540
-0.231,-0.893,0.435,4.550,4.270,-8.820
-0.226,-0.892,0.450,5.880,7.420,-9.240
-0.232,-0.895,0.469,7.700,8.470,-9.520
-0.235,-0.885,0.483,10.220,9.380,-9.310
-0.235,-0.878,0.491,11.060,10.780,-9.030
-0.235,-0.854,0.505,9.870,11.480,-8.260
-0.238,-0.842,0.510,8.750,11.130,-9.380
-0.244,-0.844,0.511,7.630,10.850,-11.340
-0.245,-0.853,0.506,6.090,10.500,-12.390
-0.246,-0.856,0.379,4.900,10.500,-12.040
-0.242,-0.871,0.490,4.270,10.780,-11.270
-0.244,-0.890,0.482,4.480,11.410,-10.640
-0.237,-0.890,0.474,4.970,11.970,-10.010
-0.233,-0.894,0.465,5.320,12.740,-9.590
-0.230,-0.896,0.454,3.850,14.140,-8.680
-0.221,-0.893,0.437,3.290,15.400,-7.630
-0.219,-0.899,0.421,4.130,16.380,-6.790
-0.220,-0.897,0.417,5.740,17.570,-6.300
-0.232,-0.883,0.425,7.210,18.270,-6.230
-0.250,-0.880,0.441,8.540,18.830,-6.790
-0.289,-0.889,0.457,8.680,18.550,-7.210
-0.297,-0.880,0.471,6.650,18.270,-6.790
-0.297,-0.865,0.475,4.270,17.640,-6.930
-0.291,-0.871,0.469,2.590,16.660,-7.910
-0.284,-0.871,0.461,2.030,15.890,-8.820
-0.276,-0.869,0.448,2.660,15.470,-9.310
-0.274,-0.875,0.442,3.220,15.120,-9.590
-0.278,-0.875,0.435,3.010,14.630,-9.240
-0.277,-0.866,0.414,3.570,14.140,-8.820
-0.271,-0.865,0.392,4.690,14.000,-8.610
-0.263,-0.862,0.394,5.600,13.930,-8.400
-0.262,-0.844,0.406,5.880,13.720,-7.840
-0.270,-0.849,0.418,5.810,13.090,-7.980
-0.280,-0.868,0.420,6.510,12.670,-8.190
-0.284,-0.880,0.422,4.970,12.670,-7.560
-0.277,-0.848,0.426,3.010,12.390,-6.370
-0.278,-0.846,0.409,1.750,11.620,-7.000
-0.283,-0.851,0.403,0.700,11.340,-7.700
-0.291,-0.849,0.397,-0.070,11.130,-7.910
-0.296,-0.855,0.398,-0.560,11.200,-8.120
-0.295,-0.870,0.404,-0.770,11.340,-8.190
-0.296,-0.877,0.408,-0.560,10.780,-7.700
-0.295,-0.885,0.403,-0.070,10.080,-6.930
-0.294,-0.883,0.405,1.260,9.240,-5.600
-0.291,-0.870,0.401,1.680,8.680,-4.970
-0.288,-0.852,0.401,1.050,8.470,-4.550
-0.291,-0.839,0.409,-0.770,7.840,-4.480
-0.295,-0.844,0.416,-2.240,7.000,-4.690
-0.296,-0.855,0.421,-4.200,6.510,-4.690
-0.295,-0.869,0.420,-5.740,6.650,-4.340
-0.297,-0.877,0.415,-6.090,6.720,-4.410
-0.304,-0.886,0.412,-5.530,6.720,-4.270
-0.305,-0.893,0.407,-4.200,6.930,-4.480
-0.304,-0.891,0.411,-3.500,7.140,-3.990
-0.301,-0.887,0.414,-3.080,7.210,-3.430
-0.295,-0.882,0.412,-2.800,7.000,-3.010
-0.292,-0.882,0.412,-2.240,6.650,-2.940
-0.288,-0.880,0.407,-2.380,6.090,-2.660
-0.281,-0.874,0.405,-2.730,5.530,-2.590
-0.280,-0.865,0.405,-3.570,5.040,-2.800
-0.285,-0.861,0.409,-4.690,4.690,-3.360
-0.285,-0.864,0.415,-5.320,3.990,-3.150
-0.293,-0.876,0.419,-5.740,2.870,-3.920
-0.298,-0.884,0.422,-5.460,2.030,-4.410
-0.290,-0.895,0.423,-4.760,1.190,-4.130
-0.281,-0.902,0.416,-4.620,1.050,-3.570
-0.279,-0.895,0.406,-3.990,0.980,-3.500
-0.278,-0.885,0.395,-3.640,1.260,-3.150
-0.268,-0.880,0.390,-3.220,1.960,-2.870
-0.267,-0.872,0.392,-3.360,2.590,-2.590
-0.273,-0.869,0.405,-3.780,2.870,-2.030
-0.277,-0.873,0.409,-4.060,2.940,-2.030
-0.277,-0.876,0.409,-3.780,2.800,-1.890
-0.280,-0.886,0.408,-3.360,3.010,-1.470
-0.280,-0.885,0.421,-3.850,2.870,-0.910
-0.274,-0.875,0.431,-5.180,2.310,-1.190
-0.273,-0.877,0.436,-5.880,2.100,-1.400
-0.271,-0.887,0.436,-6.160,1.680,-1.470
-0.274,-0.898,0.434,-5.670,1.540,-1.330
-0.270,-0.900,0.429,-5.040,1.260,-0.910
-0.269,-0.900,0.420,-4.550,1.400,-0.140
-0.266,-0.890,0.412,-3.710,1.750,-0.140
-0.262,-0.883,0.411,-3.920,1.750,0.140
-0.260,-0.880,0.410,-4.200,1.820,-0.070
-0.256,-0.887,0.408,-4.200,1.960,-0.490
-0.254,-0.895,0.408,-3.640,2.450,-0.350
-0.251,-0.899,0.414,-3.290,2.730,-0.070
-0.253,-0.902,0.417,-2.100,3.290,0.000
-0.257,-0.902,0.426,-1.610,3.150,0.560
-0.255,-0.886,0.435,-2.030,3.010,1.540
-0.250,-0.872,0.441,-4.340,3.220,2.590
-0.247,-0.872,0.441,-5.950,3.710,3.220
-0.246,-0.876,0.438,-7.140,3.850,3.150
-0.252,-0.875,0.427,-7.210,3.850,2.520
-0.255,-0.877,0.414,-6.790,4.130,1.890
-0.257,-0.875,0.410,-6.440,4.200,1.610
-0.254,-0.875,0.404,-6.440,4.690,1.400
-0.251,-0.881,0.408,-6.090,5.040,1.050
-0.255,-0.896,0.405,-4.760,5.460,0.420
-0.250,-0.907,0.407,-3.570,6.090,0.210
-0.240,-0.903,0.417,-2.520,7.000,0.630
-0.233,-0.895,0.433,-2.590,7.700,0.980
-0.226,-0.884,0.443,-3.500,8.400,1.540
-0.226,-0.879,0.443,-4.690,9.170,2.030
-0.230,-0.879,0.440,-5.740,10.290,2.030

-1.021,-0.697,-0.608,37.240,145.880,-6.370
-1.056,-0.640,-0.715,29.190,144.270,-7.490
-1.067,-0.606,-0.773,14.910,149.800,-10.780
-1.069,-0.592,-0.782,0.420,145.670,-14.770
-1.081,-0.695,-0.782,-22.610,139.440,-22.400
-1.047,-0.786,-0.741,-36.260,129.710,-26.600
-1.002,-0.893,-0.712,-48.580,114.450,-31.500
-0.951,-0.896,-0.700,-58.730,90.300,-30.730
-0.905,-0.918,-0.771,-66.920,70.770,-29.330
-0.841,-0.901,-0.841,-68.250,51.520,-27.230
-0.835,-0.910,-0.948,-60.620,31.640,-24.780
-0.819,-0.895,-1.071,-48.510,12.670,-21.560
-0.799,-0.852,-1.218,-33.950,-3.990,-18.690
-0.789,-0.816,-1.370,-19.670,-24.220,-17.780
-0.776,-0.824,-1.410,-5.530,-39.270,-19.250
-0.753,-0.883,-1.374,10.710,-56.420,-20.720
-0.750,-0.927,-1.332,19.950,-73.710,-22.750
-0.752,-0.976,-1.218,25.480,-96.460,-26.390
-0.748,-1.038,-1.109,24.290,-113.120,-31.850
-0.693,-1.076,-0.997,13.370,-129.570,-36.400
-0.647,-1.053,-0.910,-13.230,-146.510,-39.200
-0.602,-1.002,-0.836,-38.080,-164.710,-42.560
-0.564,-1.023,-0.845,-57.400,-189.910,-49.070
-0.527,-1.065,-0.883,-69.860,-208.670,-53.200
-0.479,-1.075,-0.917,-68.180,-226.660,-58.660
-0.416,-1.100,-0.888,-57.400,-244.650,-63.350
-0.335,-1.117,-0.788,-45.850,-281.260,-69.580
-0.237,-1.141,-0.693,-36.610,-286.230,-75.110
-0.183,-1.146,-0.561,-26.530,-301.980,-80.360
-0.132,-1.206,-0.439,-25.830,-314.090,-83.720
-0.049,-1.223,-0.315,-30.590,-325.920,-83.720
0.038,-1.234,-0.258,-40.110,-330.820,-81.550
0.125,-1.234,-0.235,-49.000,-333.060,-75.670
0.281,-1.267,-0.269,-50.190,-323.120,-64.400
0.398,-1.257,-0.289,-42.350,-317.940,-53.970
0.346,-1.235,-0.383,-23.450,-313.810,-42.980
0.379,-1.215,-0.433,0.210,-304.500,-30.030
0.471,-1.195,-0.364,22.190,-294.910,-18.270
0.532,-1.165,-0.255,36.820,-286.860,-7.070
0.580,-1.103,-0.110,40.880,-281.330,9.380
0.635,-0.996,0.017,34.580,-279.230,23.800
0.674,-0.978,0.116,22.470,-272.510,35.840
0.722,-0.953,0.139,8.330,-261.450,46.410
0.727,-0.911,0.267,-7.420,-253.260,55.580
0.685,-0.868,0.340,-20.720,-245.980,62.790
0.634,-0.823,0.503,-31.780,-236.390,68.180
0.587,-0.786,0.633,-42.980,-227.920,71.400
0.534,-0.759,0.712,-50.610,-219.380,70.840
0.483,-0.798,0.731,-53.690,-209.860,65.450
0.451,-0.854,0.701,-50.260,-198.660,56.840
0.455,-0.900,0.670,-44.100,-186.130,53.200
0.474,-0.938,0.654,-40.250,-174.020,53.060
0.487,-0.939,0.634,-39.270,-162.610,55.580
0.491,-0.915,0.599,-40.950,-151.340,58.660
0.478,-0.892,0.569,-42.280,-138.320,60.200
0.424,-0.867,0.561,-42.420,-132.510,60.900
0.366,-0.853,0.581,-40.390,-129.360,59.430
0.316,-0.836,0.661,-37.730,-127.680,57.190
0.261,-0.817,0.761,-34.580,-127.680,55.020
0.216,-0.813,0.837,-30.100,-127.540,51.940
0.179,-0.826,0.871,-26.740,-123.620,48.370
0.160,-0.825,0.900,-22.190,-117.530,42.980
0.139,-0.822,0.900,-20.370,-110.950,38.920
0.113,-0.798,0.860,-18.200,-103.880,33.880
0.109,-0.808,0.750,-13.090,-63.210,12.950
0.166,-0.761,0.772,-15.120,-66.990,11.900
-0.116,-0.787,0.694,-17.360,-74.900,11.900
-0.012,-0.790,0.607,-17.850,-68.040,13.930
0.001,-0.806,0.544,-16.310,-58.170,13.300
-0.002,-0.818,0.503,-12.810,-48.790,11.830
-0.013,-0.857,0.476,-4.480,-40.320,8.960
-0.039,-0.876,0.485,0.070,-31.780,7.420
-0.060,-0.875,0.517,2.310,-24.150,7.070
-0.085,-0.870,0.551,3.010,-18.060,7.420
-0.115,-0.855,0.590,3.010,-13.440,7.000
-0.153,-0.839,0.632,1.890,-12.390,5.250
-0.180,-0.830,0.647,0.980,-12.530,2.170
-0.199,-0.842,0.645,-1.820,-13.860,0.000
-0.216,-0.841,0.616,-3.850,-15.260,-1.680
-0.227,-0.847,0.582,-5.880,-15.820,-3.080
-0.244,-0.864,0.540,-6.510,-15.120,-4.270
-0.257,-0.886,0.486,-6.020,-14.420,-5.180
-0.272,-0.899,0.419,-5.810,-13.090,-4.760
-0.272,-0.907,0.373,-4.900,-10.710,-3.850
-0.263,-0.921,0.344,-3.080,-7.980,-2.450
-0.248,-0.928,0.345,-0.630,-4.970,-1.750
-0.242,-0.916,0.356,0.140,-2.240,-1.260
-0.237,-0.918,0.377,0.770,-0.980,-2.730
-0.246,-0.925,0.390,0.980,-1.120,-5.460
-0.249,-0.907,0.412,-0.140,-0.070,-7.560
-0.237,-0.896,0.418,-1.330,4.830,-9.660
-0.236,-0.894,0.418,-2.170,8.680,-10.570
-0.261,-0.885,0.421,-2.520,10.780,-11.830
-0.281,-0.901,0.413,-3.080,11.060,-14.140
-0.296,-0.921,0.398,-3.850,10.990,-16.590
-0.298,-0.951,0.363,-3.430,10.990,-17.920
-0.289,-0.971,0.330,-2.030,12.740,-20.370
-0.267,-0.988,0.296,0.070,14.350,-19.740
-0.257,-0.999,0.269,3.220,16.310,-17.220
-0.247,-0.994,0.266,8.470,17.710,-13.230
-0.246,-0.978,0.277,11.130,18.550,-10.570
-0.248,-0.964,0.289,12.460,19.320,-9.030
-0.251,-0.954,0.312,11.550,19.320,-8.400
-0.254,-0.943,0.326,9.940,18.900,-8.260
-0.264,-0.942,0.342,7.280,17.920,-8.610
-0.265,-0.946,0.352,5.460,16.870,-9.310
-0.268,-0.958,0.358,4.690,15.750,-9.870
-0.266,-0.960,0.358,4.270,14.840,-9.240
-0.272,-0.963,0.355,3.780,14.000,-8.400
-0.279,-0.955,0.344,4.340,13.440,-7.560
-0.286,-0.956,0.326,5.180,13.020,-6.720
-0.292,-0.956,0.293,5.530,13.650,-5.600
-0.285,-0.947,0.274,6.300,14.700,-4.270
-0.286,-0.935,0.264,6.930,15.190,-3.220
-0.295,-0.930,0.271,7.630,14.910,-3.010
-0.300,-0.926,0.281,7.070,14.210,-2.660
-0.296,-0.922,0.300,6.020,14.420,-2.590
-0.293,-0.917,0.320,4.060,14.070,-2.590
-0.292,-0.915,0.327,2.310,13.650,-2.660
-0.292,-0.915,0.329,1.190,13.230,-2.730
-0.297,-0.912,0.330,0.140,12.600,-3.010
-0.299,-0.907,0.331,-0.070,11.340,-3.150
-0.305,-0.905,0.330,-0.770,9.940,-3.430
-0.308,-0.915,0.324,-1.120,8.820,-3.920
-0.308,-0.930,0.310,-0.910,8.470,-4.270
-0.304,-0.941,0.291,0.070,8.890,-3.570
-0.298,-0.953,0.265,0.910,9.520,-2.310
-0.293,-0.946,0.239,2.660,9.660,-0.700
-0.292,-0.939,0.234,4.060,10.290,0.910
-0.291,-0.923,0.240,4.970,10.780,2.450
-0.297,-0.908,0.260,5.460,10.500,3.220
-0.300,-0.904,0.275,4.270,9.800,4.340
-0.303,-0.879,0.290,1.960,9.590,3.920
-0.302,-0.868,0.305,-0.770,9.100,2.240
-0.312,-0.879,0.307,-2.940,7.490,0.770
-0.308,-0.892,0.312,-4.130,6.300,-0.210
-0.301,-0.900,0.325,-5.110,5.250,0.000
-0.307,-0.912,0.327,-5.880,4.060,0.000
-0.316,-0.925,0.316,-5.670,2.590,0.140
-0.312,-0.931,0.301,-4.270,1.540,0.350
-0.303,-0.931,0.278,-2.940,1.470,0.770
-0.295,-0.922,0.256,-1.470,1.750,1.680
-0.293,-0.917,0.243,0.210,2.240,2.170
-0.289,-0.908,0.242,1.960,2.870,2.100
-0.287,-0.896,0.255,3.220,3.570,1.890
-0.291,-0.891,0.279,3.290,4.200,1.540
-0.302,-0.884,0.297,1.400,3.920,1.400
-0.311,-0.885,0.301,0.420,2.660,0.140
-0.307,-0.895,0.305,0.280,1.540,-1.120
-0.297,-0.903,0.308,0.000,0.910,-1.330
-0.291,-0.912,0.312,-1.260,0.700,-0.980
-0.303,-0.918,0.315,-2.310,0.070,-0.980
-0.310,-0.923,0.308,-2.870,-0.350,-1.120
-0.309,-0.928,0.297,-3.430,-0.560,-1.120
-0.293,-0.924,0.293,-3.290,-0.630,-0.420
-0.289,-0.917,0.291,-3.080,-0.420,0.280
-0.286,-0.915,0.291,-2.310,-0.140,1.190
-0.297,-0.919,0.291,-0.910,0.350,0.700
-0.311,-0.929,0.296,-1.610,0.770,-0.210
-0.317,-0.930,0.297,-2.380,0.910,-0.630
-0.314,-0.935,0.282,-1.190,0.980,-0.700
-0.315,-0.942,0.285,0.980,1.190,-0.350
-0.313,-0.922,0.295,2.450,1.330,0.420
-0.318,-0.909,0.304,3.290,1.540,0.910
-0.331,-0.915,0.309,4.970,1.260,0.350
-0.336,-0.930,0.306,6.860,1.330,-0.840
-0.330,-0.928,0.305,8.330,2.030,-0.700
-0.318,-0.911,0.301,5.600,3.430,0.840
-0.301,-0.867,0.324,1.610,4.060,2.730
-0.307,-0.852,0.330,-2.660,3.290,2.100
-0.316,-0.854,0.324,-6.790,1.890,0.770
-0.322,-0.862,0.308,-9.380,0.910,-0.560
-0.305,-0.874,0.300,-11.900,1.190,-0.910
-0.293,-0.893,0.290,-13.860,1.680,-0.770
-0.296,-0.919,0.282,-14.000,1.750,-1.190
-0.304,-0.945,0.271,-11.620,1.470,-1.610
-0.304,-0.968,0.268,-6.720,1.190,-1.050
-0.302,-0.963,0.273,-2.870,0.840,0.070
-0.298,-0.947,0.280,-0.770,0.840,1.400
-0.290,-0.926,0.289,0.210,0.980,2.520
-0.286,-0.914,0.297,-0.210,0.980,3.150
-0.285,-0.901,0.299,-1.470,0.700,3.640
-0.289,-0.893,0.300,-3.010,0.700,3.640
-0.298,-0.885,0.296,-4.620,0.210,3.150
-0.308,-0.882,0.289,-6.440,-0.490,2.380
-0.309,-0.883,0.285,-7.910,-1.190,1.470
-0.308,-0.889,0.277,-8.470,-1.890,0.980
-0.315,-0.909,0.272,-8.330,-2.520,0.420
-0.315,-0.928,0.270,-7.280,-3.220,0.280
-0.308,-0.937,0.265,-5.740,-3.920,0.560
-0.306,-0.941,0.264,-3.430,-4.410,0.840
-0.305,-0.940,0.270,-2.100,-4.620,1.540
-0.309,-0.924,0.277,-1.890,-4.970,1.820
-0.304,-0.914,0.285,-3.360,-5.040,2.100
-0.296,-0.907,0.285,-4.060,-4.620,2.030
-0.297,-0.910,0.285,-4.830,-4.060,1.610
-0.306,-0.910,0.296,-5.740,-3.290,1.680
-0.315,-0.907,0.300,-6.160,-3.010,1.610
-0.328,-0.909,0.300,-6.090,-2.940,1.330

-0.866,-0.904,-0.629,-29.680,108.010,-8.680
-0.926,-0.866,-0.762,-28.980,111.790,-7.000
-0.948,-0.827,-0.871,-35.140,116.060,-4.970
-0.949,-0.786,-0.959,-55.160,120.190,-5.250
-0.911,-0.799,-1.016,-66.290,136.080,-8.960
-0.893,-0.814,-1.116,-77.700,138.320,-9.660
-0.884,-0.831,-1.156,-84.280,132.930,-11.900
-0.814,-0.921,-1.113,-79.240,125.020,-17.080
-0.795,-1.004,-1.068,-65.590,111.370,-18.550
-0.767,-1.097,-0.987,-41.230,91.140,-16.800
-0.737,-1.112,-1.004,-32.200,59.430,-14.560
-0.722,-1.108,-0.918,-34.020,11.830,-14.140
-0.689,-1.083,-0.966,-37.590,-23.940,-14.140
-0.661,-1.080,-1.008,-40.180,-56.910,-15.120
-0.665,-1.079,-1.064,-43.750,-85.330,-18.620
-0.631,-1.081,-1.124,-45.500,-108.990,-22.820
-0.547,-1.055,-1.161,-46.970,-136.010,-28.070
-0.486,-1.062,-1.123,-45.710,-153.860,-35.210
-0.446,-1.236,-1.031,-43.820,-171.430,-44.520
-0.409,-1.156,-0.933,-40.670,-189.770,-49.280
-0.356,-1.161,-0.825,-35.700,-226.450,-52.080
-0.271,-1.143,-0.721,-27.650,-234.640,-53.130
-0.207,-1.107,-0.649,-19.180,-253.820,-53.270
-0.159,-1.064,-0.609,-9.660,-272.930,-51.450
-0.102,-1.016,-0.540,-8.120,-293.230,-51.450
-0.060,-1.011,-0.468,-9.660,-313.600,-55.510
0.000,-1.046,-0.277,-17.360,-339.290,-62.160
0.041,-1.114,-0.125,-29.190,-356.860,-70.210
0.089,-1.207,-0.055,-41.020,-369.530,-73.780
0.165,-1.348,0.018,-53.130,-375.340,-66.360
0.266,-1.403,-0.061,-52.010,-373.800,-51.100
0.419,-1.395,-0.176,-41.370,-348.950,-30.240
0.529,-1.308,-0.293,-24.500,-332.710,-10.430
0.446,-1.216,-0.477,-4.410,-318.290,5.180
0.447,-1.169,-0.549,19.460,-306.880,17.710
0.450,-1.015,-0.546,44.310,-296.940,22.960
0.461,-1.080,-0.463,58.870,-289.170,24.570
0.460,-1.073,-0.299,69.160,-285.040,24.360
0.447,-1.135,0.001,72.730,-282.800,25.550
0.466,-1.212,0.304,66.150,-276.220,32.830
0.521,-1.206,0.554,55.650,-268.800,48.020
0.541,-1.185,0.728,42.910,-262.780,61.460
0.569,-1.106,0.779,30.450,-256.410,70.770
0.590,-0.977,0.800,18.900,-247.310,76.510
0.549,-0.821,0.772,5.740,-236.040,78.540
0.512,-0.669,0.726,-11.620,-222.740,78.680
0.472,-0.575,0.630,-30.240,-207.410,76.370
0.423,-0.567,0.560,-45.500,-192.500,69.790
0.366,-0.604,0.507,-54.250,-179.760,57.470
0.319,-0.721,0.498,-52.920,-170.240,48.020
0.294,-0.837,0.518,-45.150,-164.290,40.950
0.285,-0.921,0.536,-33.390,-159.530,37.660
0.294,-0.976,0.567,-23.940,-154.770,38.360
0.333,-1.009,0.647,-17.500,-148.260,41.580
0.358,-1.037,0.702,-14.630,-143.780,44.730
0.371,-1.037,0.726,-11.900,-138.250,48.160
0.387,-0.994,0.739,-12.110,-127.120,51.590
0.379,-0.905,0.756,-13.790,-116.480,53.130
0.327,-0.810,0.799,-15.540,-111.860,47.250
0.248,-0.787,0.798,-17.010,-108.780,40.390
0.198,-0.741,0.769,-18.760,-105.700,37.800
0.162,-0.711,0.729,-19.460,-99.470,37.240
0.119,-0.739,0.695,-17.430,-95.760,35.140
0.092,-0.802,0.675,-13.580,-91.770,31.780
0.099,-0.850,0.637,-6.440,-75.670,24.570
0.126,-0.860,0.660,-1.750,-71.050,20.300
0.051,-0.865,0.671,0.700,-66.850,18.270
0.010,-0.868,0.679,1.750,-60.060,19.810
-0.021,-0.860,0.687,3.640,-52.990,20.230
-0.056,-0.833,0.684,4.760,-45.710,17.990
-0.073,-0.792,0.682,4.200,-39.550,15.680
-0.097,-0.761,0.678,1.890,-34.370,13.370
-0.120,-0.742,0.663,-0.910,-29.540,11.200
-0.151,-0.738,0.643,-4.130,-24.290,9.520
-0.163,-0.747,0.628,-6.300,-21.140,7.630
-0.165,-0.768,0.600,-8.540,-17.290,5.180
-0.165,-0.794,0.578,-10.080,-13.160,2.240
-0.160,-0.830,0.551,-10.080,-8.680,0.560
-0.150,-0.861,0.526,-10.360,-3.500,-0.630
-0.153,-0.880,0.507,-10.010,0.980,-1.820
-0.179,-0.899,0.492,-7.140,6.650,-2.870
-0.200,-0.906,0.500,-3.920,10.500,-3.150
-0.224,-0.900,0.513,-1.470,13.440,-3.150
-0.244,-0.881,0.520,0.840,15.050,-3.080
-0.261,-0.859,0.510,2.450,15.750,-4.060
-0.267,-0.841,0.493,1.960,16.100,-5.390
-0.263,-0.828,0.477,1.050,16.310,-6.790
-0.248,-0.835,0.453,0.210,17.430,-8.400
-0.238,-0.853,0.430,-0.630,19.390,-10.010
-0.232,-0.865,0.433,-1.750,20.370,-11.340
-0.234,-0.882,0.427,-2.590,20.020,-12.320
-0.228,-0.895,0.412,-2.940,19.740,-12.670
-0.221,-0.905,0.402,-3.360,19.460,-11.620
-0.223,-0.924,0.382,-4.200,19.180,-10.500
-0.224,-0.935,0.369,-3.220,18.970,-9.240
-0.229,-0.945,0.352,-0.980,19.180,-8.190
-0.234,-0.946,0.346,1.260,20.160,-7.280
-0.235,-0.933,0.342,3.360,20.510,-6.580
-0.243,-0.932,0.338,4.690,20.440,-6.370
-0.252,-0.921,0.342,5.670,19.880,-6.440
-0.256,-0.907,0.353,6.020,18.480,-7.000
-0.263,-0.908,0.359,6.160,17.220,-8.120
-0.271,-0.912,0.366,5.180,16.030,-8.750
-0.276,-0.913,0.375,4.060,14.420,-8.610
-0.272,-0.914,0.372,3.220,13.300,-8.540
-0.265,-0.917,0.365,2.730,12.880,-8.400
-0.261,-0.911,0.366,2.030,13.090,-8.050
-0.254,-0.901,0.356,0.560,13.790,-7.070
-0.251,-0.898,0.344,0.000,14.350,-6.300
-0.257,-0.902,0.335,0.420,15.120,-6.440
-0.262,-0.911,0.329,1.680,15.470,-6.230
-0.266,-0.913,0.328,3.080,16.240,-6.020
-0.266,-0.908,0.334,3.920,16.450,-5.670
-0.267,-0.908,0.349,4.340,16.310,-5.320
-0.264,-0.907,0.358,4.690,15.540,-4.900
-0.270,-0.912,0.360,4.830,15.330,-5.110
-0.275,-0.918,0.364,3.500,14.980,-5.040
-0.270,-0.907,0.374,1.750,14.210,-4.620
-0.265,-0.898,0.377,0.280,13.440,-4.270
-0.264,-0.892,0.369,-1.400,12.670,-4.410
-0.274,-0.895,0.363,-1.330,12.040,-4.620
-0.281,-0.902,0.359,-1.400,11.550,-4.830
-0.283,-0.904,0.352,-1.820,11.690,-4.690
-0.277,-0.901,0.334,-1.960,11.970,-4.480
-0.274,-0.895,0.325,-1.750,12.530,-4.340
-0.278,-0.894,0.331,-1.260,12.950,-4.060
-0.277,-0.899,0.339,-0.490,13.090,-3.430
-0.279,-0.907,0.346,0.000,13.230,-3.080
-0.283,-0.911,0.347,-0.210,14.000,-2.870
-0.291,-0.903,0.350,-0.980,14.630,-2.450
-0.302,-0.898,0.344,-1.540,14.420,-3.010
-0.300,-0.896,0.343,-2.240,13.930,-3.640
-0.296,-0.902,0.339,-2.240,13.510,-3.220
-0.293,-0.910,0.337,-2.450,14.350,-4.060
-0.277,-0.911,0.348,-3.150,13.300,-3.570
-0.280,-0.917,0.346,-3.920,12.600,-2.660
-0.282,-0.917,0.336,-4.270,12.390,-2.660
-0.279,-0.907,0.343,-4.200,11.270,-2.870
-0.284,-0.910,0.341,-3.780,11.200,-2.940
-0.289,-0.923,0.326,-4.200,11.900,-3.010
-0.286,-0.918,0.323,-6.090,12.460,-2.240
-0.282,-0.902,0.323,-7.070,12.320,-2.030
-0.283,-0.910,0.320,-7.000,11.620,-3.150
-0.283,-0.911,0.320,-5.250,11.690,-3.710
-0.280,-0.921,0.328,-3.640,11.270,-3.010
-0.276,-0.927,0.325,-2.170,11.410,-2.450
-0.275,-0.922,0.319,-1.050,11.690,-1.540
-0.272,-0.910,0.322,-0.280,11.550,-0.840
-0.272,-0.903,0.320,1.190,11.410,-0.840
-0.281,-0.908,0.326,1.400,11.270,-1.400
-0.299,-0.904,0.334,0.560,10.640,-1.820
-0.307,-0.902,0.332,0.210,9.800,-2.870
-0.307,-0.908,0.326,0.560,9.030,-3.780
-0.294,-0.911,0.329,0.490,8.820,-4.060
-0.285,-0.911,0.335,-0.700,8.890,-3.220
-0.278,-0.907,0.339,-1.680,8.820,-2.240
-0.284,-0.903,0.341,-2.660,8.610,-2.030
-0.284,-0.909,0.335,-3.640,8.540,-1.540
-0.284,-0.915,0.319,-3.220,8.680,-1.330
-0.283,-0.915,0.318,-2.870,9.380,-1.330
-0.283,-0.914,0.325,-2.590,10.010,-1.260
-0.282,-0.912,0.332,-2.170,10.430,-1.120
-0.283,-0.921,0.340,-1.820,10.640,-1.050
-0.290,-0.932,0.339,-0.770,10.850,-1.120
-0.297,-0.929,0.337,0.070,10.570,-1.050
-0.301,-0.919,0.337,0.140,10.150,-1.190
-0.295,-0.910,0.339,-0.280,9.660,-1.470
-0.291,-0.905,0.341,-1.050,9.240,-1.540
-0.284,-0.906,0.336,-2.030,9.380,-1.680
-0.278,-0.908,0.330,-2.240,9.380,-1.260
-0.272,-0.918,0.323,-2.310,9.940,-0.980
-0.264,-0.925,0.315,-1.190,10.220,-0.420
-0.259,-0.924,0.320,-0.560,10.570,0.280
-0.253,-0.914,0.331,-1.050,11.480,1.120
-0.255,-0.900,0.347,-2.310,11.620,1.680
-0.256,-0.895,0.349,-3.010,11.760,1.610
-0.260,-0.905,0.344,-3.640,12.250,1.190
-0.267,-0.912,0.338,-3.640,12.600,0.840
-0.272,-0.917,0.340,-3.710,12.950,0.350
-0.270,-0.914,0.346,-4.270,13.160,0.070
-0.267,-0.924,0.348,-4.270,13.230,0.280
-0.262,-0.931,0.349,-3.710,13.230,0.770
-0.256,-0.935,0.349,-3.150,13.510,1.610
-0.246,-0.929,0.343,-3.010,14.350,2.730
-0.239,-0.922,0.341,-3.080,15.190,3.360
-0.240,-0.914,0.338,-2.660,15.680,3.150
-0.244,-0.905,0.341,-2.870,16.590,2.940
-0.261,-0.901,0.336,-3.360,17.430,2.730
-0.274,-0.904,0.333,-2.940,17.780,2.240
-0.281,-0.909,0.332,-2.520,18.480,1.680
-0.276,-0.916,0.328,-2.240,18.970,1.050
-0.276,-0.920,0.330,-2.100,19.320,0.840
-0.273,-0.916,0.330,-1.680,19.670,0.770
-0.264,-0.908,0.334,-2.030,19.740,0.840
-0.254,-0.906,0.334,-2.380,20.230,0.490
-0.244,-0.907,0.333,-2.940,20.160,0.630
-0.235,-0.906,0.332,-3.430,20.020,0.770
-0.228,-0.908,0.326,-4.340,20.160,1.330
-0.222,-0.903,0.330,-4.970,20.300,1.610

-1.036,-0.529,-0.795,28.630,135.170,-26.390
-1.037,-0.616,-0.961,24.430,133.700,-36.400
-1.070,-0.719,-1.119,27.510,132.090,-42.280
-1.066,-0.794,-1.207,40.740,140.700,-42.980
-1.043,-0.895,-1.303,45.220,143.920,-38.850
-1.039,-0.838,-1.258,49.070,146.860,-34.510
-1.015,-0.813,-1.213,50.680,145.670,-32.200
-0.995,-0.808,-1.149,46.200,139.930,-31.290
-0.966,-0.779,-1.155,26.530,129.290,-31.570
-0.886,-0.762,-1.168,3.640,115.640,-32.340
-0.779,-0.830,-1.203,-20.860,96.950,-35.700
-0.683,-0.967,-1.274,-38.010,53.830,-37.870
-0.599,-1.080,-1.409,-47.250,27.650,-37.450
-0.550,-1.150,-1.496,-49.770,-10.220,-36.190
-0.525,-1.266,-1.500,-41.370,-50.050,-36.820
-0.465,-1.359,-1.465,-32.060,-92.260,-35.700
-0.380,-1.426,-1.365,-24.990,-151.270,-34.790
-0.267,-1.477,-1.223,-21.070,-192.430,-35.350
-0.204,-1.463,-1.152,-21.350,-228.060,-33.320
-0.159,-1.300,-1.079,-36.120,-258.650,-31.500
-0.119,-1.229,-1.043,-46.760,-283.500,-32.760
-0.098,-1.157,-1.060,-58.730,-308.490,-32.270
-0.061,-1.056,-1.040,-68.810,-324.030,-31.990
-0.001,-0.964,-0.988,-70.140,-338.660,-35.910
0.064,-0.909,-0.915,-61.530,-353.920,-42.210
0.110,-0.929,-0.750,-50.470,-389.200,-49.770
0.144,-1.035,-0.306,-46.550,-399.840,-57.820
0.157,-1.196,0.091,-54.250,-419.510,-63.770
0.199,-1.329,0.272,-71.260,-431.270,-64.610
0.236,-1.403,0.269,-84.070,-432.040,-55.860
0.299,-1.403,0.161,-96.530,-421.470,-43.120
0.379,-1.285,-0.151,-83.510,-392.840,-32.480
0.525,-1.213,-0.424,-60.060,-359.310,-23.100
0.428,-1.144,-0.514,-35.560,-339.570,-17.570
0.409,-1.078,-0.477,-15.960,-325.430,-12.040
0.425,-1.009,-0.425,0.700,-313.180,-6.160
0.483,-0.947,-0.259,9.030,-303.730,-3.430
0.538,-0.965,0.008,13.160,-297.640,-3.990
0.569,-1.004,0.264,17.150,-293.090,-4.620
0.585,-1.047,0.578,19.390,-287.560,-0.490
0.581,-1.076,0.786,19.880,-285.670,7.210
0.586,-1.087,0.914,13.930,-284.340,17.780
0.578,-1.025,0.910,9.170,-280.420,28.490
0.570,-0.929,0.901,2.940,-272.720,38.570
0.590,-0.819,0.880,-7.420,-261.310,48.160
0.507,-0.694,0.810,-30.590,-247.870,51.520
0.462,-0.565,0.653,-46.690,-230.230,48.510
0.421,-0.570,0.523,-59.500,-211.820,39.970
0.372,-0.641,0.437,-69.300,-193.970,30.590
0.354,-0.710,0.379,-72.170,-181.230,24.010
0.334,-0.809,0.381,-72.590,-170.030,19.110
0.312,-0.900,0.424,-70.840,-161.770,16.870
0.296,-1.002,0.498,-66.500,-153.440,15.820
0.280,-1.097,0.595,-61.600,-147.140,16.310
0.269,-1.147,0.669,-54.600,-142.240,19.040
0.272,-1.161,0.749,-43.400,-138.600,22.050
0.287,-1.150,0.776,-33.670,-127.750,26.600
0.335,-1.029,0.683,-10.710,-69.160,11.410
0.375,-0.867,0.817,-6.790,-86.520,8.750
0.140,-0.825,0.816,-9.380,-97.790,11.760
0.092,-0.800,0.762,-14.140,-99.190,19.950
0.080,-0.826,0.713,-16.940,-97.300,21.420
0.046,-0.844,0.631,-16.800,-93.800,20.580
0.041,-0.874,0.592,-13.790,-86.870,20.650
0.041,-0.930,0.569,-10.080,-78.260,21.420
0.030,-0.962,0.555,-4.900,-69.230,21.490
0.008,-0.962,0.556,-0.420,-61.040,22.050
-0.004,-0.937,0.557,1.400,-52.080,22.820
-0.011,-0.879,0.571,0.700,-43.050,24.570
-0.027,-0.843,0.587,-1.050,-35.770,24.570
-0.060,-0.812,0.602,-5.530,-31.780,22.050
-0.092,-0.791,0.600,-12.950,-28.000,21.210
-0.124,-0.786,0.600,-18.060,-25.900,20.160
-0.152,-0.808,0.588,-22.120,-25.830,17.150
-0.159,-0.829,0.581,-25.130,-25.480,13.370
-0.161,-0.859,0.568,-26.600,-25.690,8.470
-0.162,-0.919,0.531,-24.710,-24.290,7.000
-0.163,-0.940,0.503,-19.460,-21.490,5.600
-0.157,-0.954,0.474,-14.140,-17.640,3.850
-0.144,-0.960,0.413,-8.400,-9.870,3.640
-0.149,-0.953,0.366,-1.330,-4.060,3.500
-0.176,-0.940,0.341,5.390,1.610,2.870
-0.206,-0.912,0.347,8.680,6.370,2.100
-0.224,-0.866,0.364,9.520,9.940,2.730
-0.231,-0.838,0.378,8.610,11.760,2.240
-0.244,-0.822,0.389,6.720,11.550,-0.700
-0.253,-0.810,0.387,3.500,11.830,-6.020
-0.249,-0.817,0.388,0.700,14.910,-11.410
-0.233,-0.845,0.389,-1.260,18.900,-14.980
-0.228,-0.887,0.387,-0.910,19.950,-16.940
-0.229,-0.917,0.386,0.140,20.160,-17.780
-0.226,-0.930,0.374,1.120,21.280,-18.970
-0.220,-0.934,0.363,1.120,22.470,-19.880
-0.223,-0.949,0.329,1.540,23.800,-19.320
-0.230,-0.957,0.286,3.850,25.270,-17.780
-0.240,-0.954,0.255,5.670,27.020,-15.820
-0.242,-0.946,0.244,7.560,28.210,-14.280
-0.250,-0.936,0.258,8.890,28.770,-13.650
-0.254,-0.930,0.278,9.310,28.490,-13.440
-0.261,-0.929,0.291,8.820,27.510,-13.300
-0.261,-0.935,0.304,7.770,26.740,-13.230
-0.256,-0.940,0.314,6.020,25.970,-13.230
-0.258,-0.950,0.318,5.040,25.480,-13.580
-0.253,-0.957,0.320,4.060,24.780,-13.650
-0.245,-0.955,0.321,3.290,24.710,-12.670
-0.239,-0.953,0.317,2.380,25.340,-11.200
-0.238,-0.951,0.310,1.610,26.110,-9.660
-0.245,-0.943,0.288,0.770,26.740,-8.120
-0.249,-0.929,0.266,-0.140,27.300,-6.860
-0.254,-0.924,0.247,-0.490,27.860,-6.300
-0.263,-0.925,0.233,-1.610,27.650,-6.090
-0.277,-0.930,0.218,-0.350,26.810,-5.950
-0.285,-0.943,0.214,1.750,25.830,-6.230
-0.290,-0.956,0.226,3.500,25.270,-6.720
-0.297,-0.956,0.244,4.970,24.570,-6.790
-0.297,-0.957,0.264,4.900,23.030,-6.370
-0.291,-0.956,0.278,4.130,21.700,-5.600
-0.286,-0.954,0.288,2.660,20.650,-4.900
-0.285,-0.943,0.294,0.280,20.300,-3.710
-0.294,-0.924,0.287,-1.470,19.530,-2.590
-0.300,-0.905,0.279,-3.500,18.620,-1.890
-0.295,-0.895,0.260,-6.020,18.480,-1.610
-0.294,-0.902,0.237,-8.400,18.620,-1.610
-0.290,-0.915,0.214,-11.690,18.970,-1.750
-0.291,-0.922,0.209,-11.550,18.410,-2.310
-0.300,-0.944,0.199,-10.500,17.150,-3.500
-0.301,-0.960,0.203,-8.050,15.050,-3.640
-0.299,-0.973,0.222,-5.180,12.320,-3.360
-0.285,-0.987,0.232,-2.310,10.920,-2.240
-0.284,-0.991,0.242,1.330,9.940,-1.190
-0.291,-0.984,0.254,4.760,8.680,-0.560
-0.297,-0.967,0.251,6.440,8.190,-0.210
-0.298,-0.928,0.257,3.710,8.820,0.980
-0.292,-0.894,0.260,-0.140,8.890,1.260
-0.300,-0.889,0.253,-2.730,8.330,0.000
-0.318,-0.897,0.243,-4.690,7.490,-1.470
-0.319,-0.905,0.231,-6.580,7.560,-2.170
-0.302,-0.910,0.228,-8.680,8.400,-1.750
-0.292,-0.922,0.221,-9.590,9.030,-1.190
-0.289,-0.947,0.212,-9.450,9.520,-0.770
-0.284,-0.970,0.208,-7.350,9.240,0.280
-0.281,-0.976,0.215,-3.360,8.610,1.330
-0.281,-0.978,0.223,-0.910,8.470,2.100
-0.291,-0.973,0.232,0.980,8.750,2.590
-0.300,-0.968,0.241,1.750,8.540,2.870
-0.297,-0.951,0.253,1.680,8.120,3.150
-0.290,-0.932,0.259,-0.140,8.120,3.360
-0.295,-0.911,0.265,-2.870,7.770,3.570
-0.307,-0.903,0.261,-4.970,7.140,2.590
-0.306,-0.908,0.253,-6.790,6.580,2.030
-0.303,-0.915,0.242,-8.190,6.300,1.890
-0.303,-0.929,0.229,-8.190,6.300,1.820
-0.305,-0.944,0.220,-7.070,6.300,1.750
-0.303,-0.964,0.212,-4.970,6.370,1.890
-0.296,-0.965,0.217,-3.010,6.650,2.450
-0.299,-0.962,0.227,-1.750,6.790,3.080
-0.298,-0.959,0.234,-0.910,6.440,3.430
-0.299,-0.950,0.239,-0.140,5.950,3.780
-0.302,-0.941,0.239,0.560,5.810,3.500
-0.300,-0.932,0.237,0.700,5.250,3.360
-0.296,-0.930,0.232,0.350,5.180,3.220
-0.282,-0.909,0.241,-1.470,5.320,3.640
-0.286,-0.895,0.243,-3.500,5.250,3.010
-0.305,-0.902,0.242,-5.110,4.480,1.120
-0.317,-0.920,0.234,-5.040,3.780,-0.770
-0.310,-0.944,0.231,-3.920,4.130,-1.260
-0.294,-0.949,0.221,-2.660,4.550,-1.050
-0.288,-0.947,0.222,-1.120,4.760,-0.840
-0.291,-0.955,0.223,0.000,4.410,-0.490
-0.292,-0.956,0.235,0.770,4.340,0.070
-0.287,-0.948,0.247,1.120,4.130,0.980
-0.280,-0.943,0.254,0.980,4.340,1.750
-0.274,-0.932,0.256,0.210,4.760,2.310
-0.274,-0.915,0.257,-1.400,4.970,3.080
-0.285,-0.907,0.256,-3.360,4.970,3.220
-0.294,-0.910,0.258,-5.320,4.830,2.520
-0.292,-0.919,0.253,-6.650,4.410,2.730
-0.288,-0.932,0.247,-6.580,4.340,2.730
-0.283,-0.935,0.246,-6.300,4.690,2.800
-0.284,-0.935,0.246,-6.720,5.390,2.870
-0.291,-0.937,0.242,-6.580,6.020,2.870
-0.296,-0.947,0.229,-4.970,6.720,2.380
-0.292,-0.953,0.227,-3.850,7.350,2.380
-0.288,-0.949,0.230,-2.380,7.770,2.940
-0.287,-0.938,0.236,-1.610,8.260,3.780
-0.288,-0.929,0.245,-2.030,8.680,4.270
-0.289,-0.919,0.250,-3.430,8.750,4.830
-0.295,-0.912,0.256,-4.830,8.610,4.200
-0.296,-0.915,0.255,-5.670,8.050,3.570
-0.294,-0.924,0.251,-5.460,7.980,3.010
-0.287,-0.926,0.244,-4.550,8.190,2.800
-0.290,-0.934,0.244,-4.690,8.610,2.800
-0.296,-0.942,0.242,-4.690,9.100,2.520
-0.295,-0.947,0.239,-4.060,8.960,2.520
-0.291,-0.948,0.235,-2.730,8.890,2.520
-0.282,-0.942,0.237,-1.470,9.310,2.870
-0.278,-0.938,0.236,-0.910,9.590,3.220
-0.275,-0.939,0.237,-1.120,10.010,3.220
-0.271,-0.937,0.233,-1.540,10.850,3.290

-0.684,-1.031,-0.630,17.710,92.540,-31.010
-0.697,-1.014,-0.648,27.580,88.340,-29.190
-0.695,-1.004,-0.636,30.730,82.180,-27.860
-0.691,-0.978,-0.628,27.510,56.350,-25.900
-0.674,-0.953,-0.659,20.440,62.160,-23.590
-0.689,-0.951,-0.692,11.480,52.430,-22.680
-0.635,-0.961,-0.707,3.220,43.120,-21.700
-0.590,-0.957,-0.685,-10.290,32.900,-21.280
-0.631,-0.944,-0.728,-22.120,21.070,-20.860
-0.640,-0.963,-0.756,-32.620,9.170,-22.540
-0.603,-1.016,-0.765,-36.680,-6.860,-25.060
-0.582,-1.068,-0.785,-35.490,-20.510,-25.830
-0.592,-1.117,-0.784,-30.660,-35.070,-24.920
-0.600,-1.164,-0.774,-27.370,-50.260,-23.520
-0.587,-1.176,-0.770,-27.580,-64.960,-21.910
-0.580,-1.159,-0.787,-32.760,-83.720,-20.860
-0.570,-1.138,-0.812,-44.870,-95.760,-21.840
-0.546,-1.113,-0.858,-64.890,-105.000,-23.520
-0.489,-1.100,-0.915,-79.520,-111.930,-25.270
-0.445,-1.095,-0.961,-89.740,-119.140,-25.900
-0.387,-1.116,-0.999,-94.220,-124.880,-26.880
-0.340,-1.134,-0.985,-73.080,-132.720,-27.300
-0.291,-1.193,-0.953,-71.120,-143.220,-27.790
-0.244,-1.234,-0.916,-46.900,-157.360,-25.480
-0.209,-1.261,-0.829,-19.390,-182.700,-21.000
-0.133,-1.275,-0.763,8.330,-203.420,-15.680
-0.075,-1.241,-0.690,34.300,-224.700,-7.350
-0.029,-1.205,-0.569,54.600,-246.330,-1.610
0.010,-1.184,-0.456,56.070,-267.890,4.550
0.037,-1.151,-0.356,49.140,-287.490,9.520
0.051,-1.076,-0.333,38.290,-302.260,12.740
0.066,-1.007,-0.305,28.070,-312.340,14.350
0.124,-0.987,-0.308,18.900,-319.200,15.470
0.184,-0.973,-0.283,11.620,-319.340,18.410
0.225,-0.978,-0.244,5.390,-318.570,21.630
0.255,-0.996,-0.233,5.460,-316.330,24.080
0.292,-1.030,-0.200,11.270,-315.000,27.090
0.322,-1.048,-0.107,21.630,-315.420,32.690
0.345,-1.085,0.014,27.440,-318.010,37.240
0.388,-1.104,0.132,26.110,-319.550,40.040
0.418,-1.097,0.250,17.920,-317.170,45.430
