aX,aY,aZ,gX,gY,gZ
-0.229,-1.618,-1.031,-536.480,-9.310,-121.870
-0.244,-1.952,-0.714,-578.900,-7.630,-114.380
-0.241,-2.233,-1.045,-516.740,7.140,-102.550
-0.330,-2.412,-1.176,-470.260,12.110,-79.590
-0.348,-2.417,-1.391,-392.210,9.940,-63.420
-0.299,-2.389,-1.557,-307.160,-5.320,-44.730
-0.074,-2.351,-1.643,-231.280,-16.870,-25.340
0.045,-2.324,-1.816,-140.840,-30.730,-1.470
0.151,-2.343,-1.972,-31.570,-48.650,17.640
0.207,-2.452,-2.082,37.030,-67.060,39.270
0.199,-2.613,-2.149,89.250,-81.200,64.120
0.180,-2.671,-2.155,117.670,-90.860,92.960
0.156,-2.625,-2.079,119.140,-111.370,122.220
0.166,-2.548,-1.901,97.510,-131.390,147.910
0.180,-2.476,-1.787,66.010,-148.120,170.380
0.183,-2.384,-1.728,38.920,-163.800,189.350
0.203,-2.277,-1.698,22.190,-179.620,204.540
0.230,-2.152,-1.699,22.470,-190.960,219.730
0.255,-1.950,-1.704,41.440,-199.500,229.250
0.310,-1.783,-1.696,62.790,-206.710,237.160
0.374,-1.631,-1.683,84.560,-211.820,244.020
0.420,-1.499,-1.648,103.250,-214.830,250.460
0.441,-1.364,-1.556,116.690,-217.700,256.200
0.480,-1.215,-1.427,124.250,-215.880,261.100
0.532,-1.125,-1.313,127.190,-206.430,265.300
0.585,-1.043,-1.204,127.400,-193.970,269.150
0.591,-0.918,-1.087,126.000,-181.790,274.400
0.586,-0.773,-0.985,124.950,-176.260,279.580
0.549,-0.609,-0.899,125.930,-178.500,281.680
0.520,-0.427,-0.803,126.700,-185.710,280.630
0.486,-0.327,-0.681,127.750,-195.720,277.130
0.451,-0.231,-0.529,130.060,-205.590,270.620
0.419,-0.171,-0.350,132.090,-209.860,261.590
0.377,-0.114,-0.176,129.150,-211.820,250.740
0.350,-0.064,-0.170,121.450,-199.430,237.230
0.373,-0.128,-0.212,105.000,-183.610,219.660
0.379,-0.166,-0.219,88.130,-168.700,199.990
0.401,-0.155,-0.259,71.050,-154.420,180.390
0.419,-0.136,-0.238,56.140,-145.810,162.190
0.378,-0.070,-0.109,28.910,-150.570,141.960
0.313,0.042,0.040,-9.520,-164.640,127.960
0.224,0.151,0.047,-4.900,-167.160,117.250
0.159,0.190,0.195,-29.330,-176.610,108.290
0.085,0.178,0.142,-15.540,-174.790,101.360
0.001,0.173,0.220,-28.000,-174.440,93.590
-0.008,0.145,0.032,28.070,-148.820,85.820
-0.029,0.124,0.220,39.340,-121.100,75.530
-0.022,0.069,0.193,53.900,-92.120,65.730
-0.071,0.000,0.151,66.220,-65.310,58.660
-0.112,-0.062,0.126,75.670,-52.080,54.950
-0.148,-0.067,0.148,81.550,-42.700,51.940
-0.164,-0.058,0.182,85.260,-33.390,48.790
-0.182,-0.020,0.221,87.010,-24.290,44.660
-0.220,0.051,0.246,85.750,-17.150,40.180
-0.252,0.106,0.261,82.810,-12.460,33.320
-0.293,0.144,0.274,79.030,-9.660,24.990
-0.338,0.142,0.269,74.130,-9.240,15.400
-0.369,0.094,0.265,70.420,-11.060,5.530
-0.378,0.010,0.274,68.320,-14.070,-2.800
-0.366,-0.079,0.276,68.530,-14.770,-8.260
-0.342,-0.146,0.269,71.890,-10.500,-11.340
-0.346,-0.180,0.251,75.740,-6.300,-12.110
-0.371,-0.218,0.229,79.380,-2.520,-10.360
-0.417,-0.234,0.208,82.880,0.210,-6.790
-0.468,-0.227,0.207,81.760,1.960,-3.780
-0.529,-0.198,0.240,75.460,2.240,-3.500
-0.590,-0.157,0.254,67.690,0.840,-5.250
-0.649,-0.121,0.297,61.460,-2.450,-8.890
-0.713,-0.103,0.360,56.420,-4.690,-14.630
-0.737,-0.129,0.386,51.170,-4.410,-20.440
-0.723,-0.194,0.398,48.300,-3.990,-24.500
-0.695,-0.283,0.397,47.460,-2.170,-26.110
-0.663,-0.392,0.379,49.700,2.660,-23.590
-0.638,-0.442,0.338,52.500,10.150,-18.830
-0.635,-0.441,0.306,53.060,18.760,-12.740
-0.634,-0.419,0.258,53.410,27.860,-7.280
-0.651,-0.402,0.227,53.130,37.100,-4.760
-0.691,-0.388,0.210,52.150,40.740,-5.600
-0.731,-0.381,0.202,50.540,41.160,-8.120
-0.761,-0.390,0.195,47.250,39.270,-11.200
-0.789,-0.391,0.189,44.660,35.560,-13.370
-0.806,-0.390,0.206,42.980,32.550,-15.750
-0.811,-0.409,0.226,41.860,30.590,-17.710
-0.799,-0.441,0.253,39.340,28.560,-19.530
-0.783,-0.468,0.270,35.770,26.810,-19.390
-0.760,-0.491,0.279,32.480,26.180,-17.220
-0.737,-0.517,0.230,30.170,27.790,-13.370
-0.744,-0.535,0.179,29.680,29.470,-9.030
-0.768,-0.508,0.147,29.610,30.870,-6.230
-0.784,-0.489,0.128,28.700,31.780,-5.600
-0.804,-0.484,0.107,27.720,32.200,-6.510
-0.825,-0.477,0.107,27.300,31.290,-7.840
-0.835,-0.476,0.116,26.740,29.890,-9.170
-0.846,-0.476,0.122,27.230,28.420,-10.290
-0.860,-0.461,0.142,27.580,26.250,-10.780
-0.866,-0.447,0.178,26.670,24.430,-11.130
-0.865,-0.435,0.195,25.060,22.540,-11.480
-0.859,-0.434,0.194,21.770,21.420,-11.480
-0.864,-0.430,0.169,18.200,19.530,-12.460
-0.861,-0.449,0.131,12.670,17.710,-13.860
-0.849,-0.478,0.087,9.730,16.310,-13.860
-0.846,-0.498,0.060,8.120,14.140,-13.510
-0.853,-0.523,0.038,7.560,12.250,-13.020
-0.860,-0.535,0.028,7.840,10.150,-12.460
-0.858,-0.543,0.033,9.030,7.630,-12.320
-0.852,-0.561,0.061,10.640,5.530,-12.040
-0.839,-0.572,0.077,11.060,5.390,-10.780
-0.840,-0.560,0.087,10.710,4.900,-9.800
-0.839,-0.544,0.104,9.520,4.690,-8.890
-0.838,-0.504,0.121,7.350,4.760,-8.330
-0.846,-0.463,0.129,3.220,4.340,-9.240
-0.844,-0.447,0.119,-0.560,4.550,-10.850
-0.845,-0.468,0.102,-3.990,4.410,-12.740
-0.841,-0.502,0.087,-6.650,3.640,-13.860
-0.827,-0.544,0.040,-6.720,3.640,-13.510
-0.813,-0.584,0.009,-4.970,3.780,-11.760
-0.813,-0.595,-0.003,-1.400,3.710,-9.800
-0.814,-0.603,0.013,2.170,3.780,-8.260
-0.810,-0.611,0.036,6.510,3.920,-6.440
-0.808,-0.605,0.061,8.820,3.360,-5.250
-0.803,-0.586,0.084,6.300,3.640,-3.780
-0.811,-0.544,0.099,2.870,3.780,-3.500
-0.816,-0.530,0.098,-1.330,1.750,-4.340
-0.828,-0.523,0.098,-5.460,-0.980,-5.600
-0.838,-0.500,0.109,-8.960,-3.710,-7.000
-0.837,-0.486,0.100,-11.620,-5.180,-9.660
-0.827,-0.513,0.076,-12.810,-5.530,-11.270
-0.814,-0.551,0.050,-11.970,-6.090,-10.780
-0.788,-0.573,0.019,-9.240,-5.670,-8.960
-0.757,-0.583,0.004,-5.040,-4.410,-7.210
-0.747,-0.583,0.020,-1.260,-3.360,-6.230
-0.735,-0.568,0.047,0.140,-2.310,-5.250
-0.728,-0.536,0.071,0.840,-1.610,-4.900
-0.734,-0.518,0.085,0.000,-1.120,-5.670
-0.746,-0.509,0.089,-1.190,-1.820,-7.350
-0.746,-0.505,0.092,-3.010,-3.360,-8.680
-0.730,-0.503,0.087,-4.760,-3.850,-9.170
-0.712,-0.482,0.083,-6.860,-3.920,-9.730
-0.709,-0.453,0.071,-6.650,-3.570,-10.990
-0.707,-0.456,0.065,-5.810,-3.290,-12.530
-0.704,-0.454,0.041,-3.850,-3.150,-13.580
-0.711,-0.472,0.012,-2.940,-3.850,-14.630
-0.734,-0.503,0.003,-1.750,-5.950,-16.030
-0.745,-0.527,0.023,0.210,-9.520,-17.360
-0.761,-0.543,0.059,4.200,-11.900,-18.970
-0.778,-0.550,0.089,6.160,-11.340,-19.740
-0.772,-0.535,0.109,5.880,-8.470,-19.250
-0.767,-0.518,0.109,5.600,-4.060,-18.970
-0.777,-0.514,0.105,3.990,-1.400,-19.460
-0.788,-0.512,0.094,1.470,0.210,-19.950
-0.799,-0.512,0.088,-1.050,0.910,-22.050
-0.818,-0.525,0.088,-4.760,0.140,-24.570
-0.835,-0.560,0.083,-7.560,-1.120,-26.670
-0.845,-0.602,0.066,-8.750,-2.240,-27.790
-0.839,-0.646,0.030,-8.470,-1.330,-27.020
-0.838,-0.684,0.007,-6.860,0.700,-24.710
-0.849,-0.709,0.008,-4.970,1.540,-22.330
-0.862,-0.715,0.041,-4.480,1.890,-19.740
-0.867,-0.705,0.073,-5.460,3.920,-18.060
-0.870,-0.697,0.085,-6.300,6.510,-17.360
-0.883,-0.691,0.090,-6.720,9.380,-17.780
-0.902,-0.687,0.091,-7.560,10.920,-18.760
-0.906,-0.677,0.074,-8.540,9.730,-18.760
-0.908,-0.678,0.062,-9.100,5.740,-17.920
-0.902,-0.708,0.061,-8.470,2.730,-18.480
-0.886,-0.746,0.066,-7.840,3.220,-18.690
-0.858,-0.766,0.055,-6.370,7.070,-17.640
-0.830,-0.782,0.032,-4.550,11.760,-14.980
-0.827,-0.781,0.004,-2.660,15.890,-11.690
-0.834,-0.764,0.007,-1.960,16.030,-8.820
-0.833,-0.747,0.012,-2.450,15.050,-7.070
-0.829,-0.728,0.027,-4.130,14.070,-6.370
-0.820,-0.707,0.034,-6.230,13.160,-6.720
-0.818,-0.702,0.037,-6.650,12.670,-7.350
-0.814,-0.698,0.031,-7.000,11.690,-7.420
-0.807,-0.698,0.026,-5.740,10.570,-8.050
-0.798,-0.701,0.032,-4.410,10.920,-9.100
-0.789,-0.705,0.028,-3.080,11.620,-9.380
-0.780,-0.721,0.025,-2.660,11.620,-8.330
-0.773,-0.735,0.012,-2.940,10.640,-6.230
-0.768,-0.732,-0.007,-3.990,9.520,-4.970
-0.768,-0.722,-0.023,-5.320,8.610,-4.200
-0.764,-0.712,-0.033,-6.020,6.370,-3.920
-0.771,-0.705,-0.033,-6.580,4.410,-3.780
-0.776,-0.705,-0.031,-7.000,3.290,-3.430
-0.773,-0.707,-0.027,-6.790,2.660,-2.940
-0.771,-0.708,-0.021,-4.550,2.240,-2.240
-0.772,-0.704,-0.009,-2.520,2.170,-1.470
-0.774,-0.682,0.004,-0.350,3.150,-1.050
-0.773,-0.678,0.002,0.140,3.920,-1.260
-0.770,-0.689,-0.008,0.070,3.570,-1.540
-0.769,-0.701,-0.016,0.140,2.800,-1.330
-0.764,-0.696,-0.020,-0.420,1.960,-0.840
-0.760,-0.683,-0.025,-2.310,1.680,-0.140
-0.763,-0.683,-0.040,-3.640,1.470,0.280
-0.762,-0.686,-0.054,-4.130,0.840,1.120
-0.762,-0.683,-0.050,-3.640,-0.770,1.260
-0.768,-0.681,-0.032,-2.660,-1.960,0.910
-0.773,-0.678,-0.014,-1.330,-2.240,0.700

0.430,-1.362,-0.665,-468.160,47.740,-146.020
0.469,-1.393,-0.990,-481.670,56.770,-146.930
0.554,-1.502,-1.310,-506.240,49.210,-147.840
0.564,-1.686,-1.638,-504.000,29.750,-143.640
0.552,-1.909,-1.669,-481.320,4.480,-131.670
0.604,-2.219,-1.811,-413.070,-13.160,-109.270
0.681,-2.542,-1.865,-287.560,-27.580,-87.220
0.739,-2.546,-1.869,-187.390,-46.900,-59.150
0.790,-2.425,-1.795,-100.660,-70.630,-31.080
0.823,-2.292,-1.729,-30.660,-86.590,-7.980
0.786,-2.211,-1.713,22.750,-101.570,9.240
0.729,-2.158,-1.711,56.700,-115.010,30.800
0.694,-2.127,-1.727,76.720,-128.240,47.040
0.633,-2.165,-1.728,80.920,-140.630,62.930
0.582,-2.235,-1.692,76.790,-152.320,78.680
0.544,-2.282,-1.607,67.550,-164.500,94.290
0.529,-2.317,-1.377,56.630,-195.650,109.620
0.535,-2.349,-1.397,49.000,-191.380,124.180
0.525,-2.368,-1.358,47.530,-199.920,138.040
0.523,-2.338,-1.338,55.790,-206.990,151.550
0.521,-2.280,-1.326,71.890,-210.070,164.780
0.539,-2.195,-1.316,99.190,-209.300,182.350
0.554,-2.055,-1.319,121.520,-204.470,195.580
0.574,-1.944,-1.332,143.430,-195.650,207.620
0.598,-1.834,-1.333,163.310,-184.730,218.260
0.609,-1.713,-1.297,176.190,-172.830,228.200
0.625,-1.593,-1.245,182.630,-158.900,235.830
0.646,-1.501,-1.145,184.590,-148.540,242.550
0.668,-1.427,-1.073,183.400,-137.760,249.270
0.696,-1.362,-1.018,177.450,-128.380,255.850
0.723,-1.282,-0.960,166.180,-122.010,263.480
0.721,-1.171,-0.943,154.210,-117.530,271.670
0.706,-1.050,-0.952,146.230,-116.270,277.060
0.701,-0.972,-0.956,143.640,-115.080,281.470
0.683,-0.926,-0.948,148.120,-112.280,285.320
0.658,-0.845,-0.888,156.170,-108.150,289.800
0.652,-0.762,-0.878,159.040,-108.570,291.690
0.628,-0.703,-0.818,156.380,-111.230,292.250
0.592,-0.668,-0.771,156.310,-113.120,293.650
0.558,-0.500,-0.716,154.560,-113.890,295.470
0.518,-0.492,-0.636,149.100,-115.990,291.410
0.453,-0.397,-0.550,138.880,-118.370,282.100
0.386,-0.313,-0.503,125.160,-117.600,266.350
0.319,-0.246,-0.458,104.860,-116.200,245.560
0.270,-0.178,-0.412,80.290,-114.800,221.340
0.201,-0.123,-0.354,47.530,-119.210,196.770
0.151,-0.111,-0.344,24.430,-124.390,172.270
0.118,-0.107,-0.291,10.290,-128.030,149.450
0.079,-0.125,-0.254,8.400,-132.090,131.880
0.028,-0.136,-0.219,-6.300,-137.270,116.830
-0.009,-0.165,-0.216,-0.560,-143.010,111.020
-0.041,-0.179,-0.220,7.700,-141.470,108.220
-0.040,-0.178,-0.288,9.730,-135.520,105.840
-0.082,-0.113,-0.227,45.850,-113.330,104.720
-0.044,-0.086,-0.218,57.890,-86.730,101.710
-0.027,-0.049,-0.230,72.450,-63.490,98.910
-0.040,-0.039,-0.215,90.510,-44.870,93.380
-0.060,-0.015,-0.188,101.500,-31.290,89.320
-0.070,0.021,-0.141,110.040,-22.680,83.860
-0.087,0.059,-0.086,115.430,-16.450,77.210
-0.104,0.091,-0.042,117.320,-12.390,69.440
-0.131,0.102,0.020,115.430,-11.970,60.970
-0.164,0.105,0.073,107.870,-16.310,51.310
-0.155,0.097,0.111,97.300,-20.580,43.610
-0.135,0.083,0.124,87.360,-22.680,38.850
-0.135,0.049,0.139,80.990,-22.050,35.700
-0.150,0.018,0.146,76.440,-18.480,34.230
-0.175,0.012,0.130,75.460,-13.230,33.950
-0.211,0.010,0.119,75.600,-7.980,34.020
-0.261,-0.001,0.105,75.250,-6.580,32.060
-0.318,-0.014,0.117,76.020,-11.830,28.140
-0.379,-0.025,0.147,74.550,-22.680,22.400
-0.437,-0.031,0.196,71.120,-35.350,16.730
-0.463,-0.045,0.266,65.240,-46.340,11.900
-0.465,-0.071,0.321,56.630,-57.680,8.400
-0.438,-0.091,0.400,45.150,-52.710,6.440
-0.412,-0.085,0.412,40.530,-43.960,6.020
-0.434,-0.117,0.425,36.190,-36.400,7.350
-0.466,-0.127,0.415,31.150,-29.330,9.730
-0.491,-0.249,0.414,26.460,-21.840,12.110
-0.506,-0.121,0.391,21.910,-15.120,14.140
-0.532,-0.137,0.366,20.650,-9.100,14.000
-0.572,-0.162,0.334,21.070,-4.620,11.410
-0.613,-0.188,0.305,24.500,-3.220,7.280
-0.651,-0.225,0.289,28.700,-5.600,3.500
-0.688,-0.273,0.300,33.810,-9.590,-0.210
-0.709,-0.319,0.345,37.170,-14.350,-2.450
-0.700,-0.354,0.387,37.660,-15.470,-3.710
-0.679,-0.384,0.417,35.770,-14.560,-3.220
-0.662,-0.389,0.447,30.100,-11.970,-0.490
-0.659,-0.351,0.461,24.430,-9.170,0.560
-0.669,-0.331,0.472,17.080,-6.720,0.140
-0.691,-0.317,0.466,9.520,-3.990,-2.030
-0.733,-0.315,0.428,3.360,-2.660,-6.300
-0.786,-0.349,0.402,-0.350,-3.850,-11.270
-0.803,-0.387,0.378,-1.190,-5.180,-15.470
-0.806,-0.429,0.350,0.560,-5.250,-18.060
-0.809,-0.467,0.336,4.760,-4.340,-19.530
-0.814,-0.517,0.325,8.470,-2.730,-18.830
-0.801,-0.547,0.331,10.990,-0.840,-17.080
-0.787,-0.562,0.336,10.990,2.240,-13.860
-0.761,-0.552,0.313,8.750,8.540,-10.150
-0.756,-0.532,0.282,5.600,12.810,-6.720
-0.775,-0.503,0.260,2.450,14.700,-5.320
-0.800,-0.483,0.249,-1.330,14.700,-5.810
-0.823,-0.465,0.240,-7.280,13.860,-8.680
-0.838,-0.464,0.236,-10.640,11.830,-11.550
-0.840,-0.482,0.229,-11.410,9.590,-14.210
-0.843,-0.516,0.227,-9.870,7.630,-16.240
-0.845,-0.551,0.232,-6.440,7.350,-17.150
-0.844,-0.584,0.250,-2.520,7.840,-17.360
-0.837,-0.606,0.271,1.190,9.660,-16.730
-0.831,-0.611,0.278,2.730,12.460,-15.190
-0.828,-0.596,0.264,1.260,15.330,-12.950
-0.831,-0.581,0.229,-0.770,16.870,-12.110
-0.843,-0.582,0.182,-3.360,16.520,-12.110
-0.863,-0.576,0.145,-5.530,13.160,-12.180
-0.877,-0.564,0.131,-6.930,11.760,-13.090
-0.878,-0.557,0.123,-7.070,11.060,-14.840
-0.882,-0.557,0.128,-7.070,10.990,-16.380
-0.883,-0.567,0.135,-6.160,10.360,-17.780
-0.878,-0.581,0.150,-5.040,10.220,-18.060
-0.872,-0.597,0.162,-4.130,10.990,-18.410
-0.860,-0.627,0.172,-3.150,11.830,-18.340
-0.834,-0.647,0.184,-3.010,12.250,-17.290
-0.820,-0.660,0.194,-3.500,12.530,-15.680
-0.806,-0.663,0.194,-4.620,13.020,-14.070
-0.802,-0.650,0.177,-7.210,14.700,-11.620
-0.797,-0.630,0.137,-8.750,15.890,-10.080
-0.802,-0.627,0.098,-8.890,17.150,-8.890
-0.811,-0.624,0.078,-7.630,17.640,-8.610
-0.826,-0.614,0.074,-5.530,17.990,-9.100
-0.835,-0.612,0.075,-3.570,17.710,-9.380
-0.833,-0.621,0.081,-1.820,16.730,-9.870
-0.830,-0.628,0.085,0.490,14.980,-10.290
-0.818,-0.643,0.099,2.800,13.230,-10.360
-0.808,-0.660,0.110,4.970,11.690,-10.220
-0.793,-0.682,0.126,5.250,11.270,-9.380
-0.773,-0.686,0.133,3.640,11.760,-7.700
-0.763,-0.670,0.138,1.750,12.810,-5.810
-0.764,-0.650,0.094,-0.630,14.840,-4.200
-0.774,-0.641,0.058,-3.220,15.540,-2.870
-0.794,-0.636,0.032,-4.480,13.930,-2.310
-0.802,-0.634,0.027,-4.830,11.480,-2.660
-0.802,-0.625,0.040,-4.830,8.400,-3.430
-0.800,-0.630,0.055,-4.270,6.020,-4.200
-0.796,-0.635,0.061,-1.890,4.550,-4.480
-0.785,-0.649,0.062,2.030,4.060,-4.690
-0.770,-0.654,0.080,7.070,4.690,-4.340
-0.758,-0.660,0.098,11.130,5.530,-3.640
-0.745,-0.657,0.114,11.830,7.210,-2.240
-0.744,-0.630,0.129,10.570,8.400,-0.840
-0.747,-0.612,0.130,5.670,9.170,-0.770
-0.754,-0.589,0.122,0.910,8.540,-0.700
-0.764,-0.590,0.084,-3.220,7.000,-0.840
-0.770,-0.602,0.056,-6.020,4.620,-0.910
-0.781,-0.610,0.051,-6.580,1.890,-1.750
-0.794,-0.616,0.058,-6.440,-0.070,-2.660
-0.791,-0.620,0.061,-4.830,-0.770,-3.220
-0.791,-0.632,0.068,-2.100,-1.540,-3.430
-0.791,-0.639,0.072,2.310,-1.750,-3.780
-0.792,-0.637,0.086,4.480,-1.610,-3.290
-0.783,-0.630,0.099,4.970,-1.190,-3.010
-0.779,-0.623,0.114,4.410,-1.190,-2.940
-0.775,-0.616,0.128,2.800,-1.750,-2.940
-0.770,-0.601,0.131,-0.070,-2.590,-2.590
-0.773,-0.591,0.117,-3.010,-3.150,-2.450
-0.771,-0.594,0.091,-5.320,-3.430,-2.310
-0.778,-0.601,0.073,-6.160,-4.130,-2.100
-0.781,-0.603,0.070,-5.670,-5.040,-2.030
-0.776,-0.606,0.081,-4.760,-6.370,-2.030
-0.773,-0.611,0.092,-3.010,-7.280,-1.960
-0.771,-0.619,0.100,-0.700,-7.770,-1.960
-0.765,-0.619,0.116,2.520,-7.700,-1.960
-0.756,-0.607,0.130,3.570,-7.630,-1.820
-0.753,-0.591,0.142,3.570,-7.560,-1.820
-0.751,-0.581,0.147,2.870,-7.350,-2.170
-0.745,-0.574,0.152,1.260,-7.280,-2.380
-0.739,-0.569,0.138,-1.050,-7.490,-2.730
-0.739,-0.568,0.119,-2.870,-7.280,-2.730
-0.743,-0.578,0.097,-3.570,-7.140,-2.030
-0.754,-0.585,0.092,-2.730,-7.140,-1.890
-0.759,-0.579,0.102,-0.980,-6.370,-2.030
-0.758,-0.580,0.122,0.420,-4.900,-2.100
-0.757,-0.589,0.134,1.680,-3.850,-2.170
-0.757,-0.597,0.141,3.080,-2.870,-2.170
-0.760,-0.608,0.147,4.410,-1.820,-1.890
-0.760,-0.611,0.151,5.600,-0.770,-1.610
-0.761,-0.606,0.155,5.250,-0.770,-1.400
-0.768,-0.604,0.163,3.430,-1.260,-1.610
-0.774,-0.598,0.164,0.560,-2.310,-1.890
-0.783,-0.601,0.164,-1.820,-3.710,-2.450
-0.789,-0.601,0.145,-3.570,-3.570,-2.940
-0.795,-0.606,0.117,-3.920,-3.010,-2.870
-0.804,-0.619,0.088,-3.150,-1.960,-2.870
-0.811,-0.631,0.076,-2.030,-1.680,-2.730
-0.810,-0.637,0.091,-1.120,-2.100,-2.380
-0.803,-0.632,0.122,-0.630,-2.310,-2.240
-0.799,-0.632,0.138,0.140,-1.820,-2.240

0.101,-1.473,-0.854,-415.800,160.860,-404.600
0.175,-1.488,-1.288,-487.550,168.210,-408.940
0.308,-1.699,-1.878,-519.330,156.520,-434.350
0.826,-2.210,-2.611,-537.670,124.250,-452.200
0.987,-2.586,-2.894,-548.240,97.650,-434.560
0.956,-3.099,-2.903,-506.660,66.430,-393.260
0.863,-3.760,-2.828,-419.370,34.020,-314.790
0.859,-4.252,-2.798,-233.170,6.440,-250.950
0.935,-4.209,-2.712,-110.250,-19.950,-194.740
0.978,-3.982,-2.638,-27.510,-71.470,-150.920
0.840,-3.945,-2.725,25.060,-106.890,-108.640
0.810,-4.065,-2.784,61.390,-143.430,-58.800
0.733,-4.099,-2.779,87.150,-178.360,-5.530
0.612,-3.797,-2.545,79.730,-217.000,54.390
0.475,-3.546,-2.155,42.490,-252.490,94.500
0.381,-3.489,-1.834,5.040,-278.320,120.750
0.352,-3.564,-1.647,-9.870,-291.480,140.420
0.376,-3.536,-1.557,1.190,-295.750,163.800
0.529,-3.383,-1.537,30.170,-294.910,190.260
0.646,-3.161,-1.545,67.480,-300.930,216.510
0.745,-2.931,-1.492,103.740,-304.990,240.030
0.845,-2.673,-1.471,136.710,-298.830,258.160
0.922,-2.392,-1.352,178.290,-284.830,276.080
1.014,-2.054,-1.263,191.240,-265.370,284.550
1.039,-1.788,-1.210,198.310,-247.170,288.610
1.029,-1.544,-1.150,198.170,-231.560,288.120
0.998,-1.330,-1.088,199.570,-216.720,283.500
0.967,-1.140,-1.009,203.630,-181.720,275.520
0.941,-0.991,-0.890,205.100,-172.270,267.960
0.880,-0.846,-0.786,205.380,-154.980,263.620
0.797,-0.725,-0.724,202.300,-143.990,260.190
0.712,-0.585,-0.701,200.760,-132.160,255.150
0.673,-0.452,-0.642,200.550,-108.850,242.900
0.669,-0.404,-0.558,204.190,-72.520,234.360
0.668,-0.401,-0.499,219.730,-22.260,229.390
0.654,-0.407,-0.459,249.830,53.620,230.650
0.511,-0.442,-0.335,234.500,83.720,237.860
0.512,-0.444,-0.582,266.140,66.570,255.920
0.312,-0.459,-0.335,226.240,2.450,280.280
0.241,-0.449,-0.380,210.280,-72.240,298.270
0.206,-0.351,-0.305,185.290,-136.500,301.140
0.254,-0.158,-0.170,148.820,-164.430,294.700
0.328,0.038,-0.049,89.180,-152.530,257.040
0.360,0.197,-0.019,41.790,-140.210,215.880
0.289,0.177,-0.089,13.720,-122.850,163.800
0.169,0.169,-0.069,-9.380,-106.190,113.260
0.086,0.155,-0.078,-23.800,-93.100,70.840
-0.115,0.134,-0.102,-38.640,-107.310,38.990
-0.108,0.100,-0.158,-54.180,-144.900,22.890
-0.142,0.035,-0.157,-66.570,-194.600,20.160
-0.142,-0.055,-0.160,-78.190,-259.280,35.140
-0.134,-0.208,-0.052,-67.130,-202.860,37.030
0.475,-0.014,0.073,-18.060,-53.760,41.930
0.352,-0.261,-0.153,27.370,-14.280,62.370
0.028,-0.347,-0.103,66.780,3.220,74.970
-0.158,-0.163,-0.042,88.970,9.100,75.600
-0.213,0.036,0.022,92.610,7.840,68.110
-0.256,0.115,0.041,82.950,3.290,62.510
-0.262,0.087,0.028,75.810,0.980,57.260
-0.261,0.007,0.020,75.460,1.540,52.220
-0.278,-0.072,0.045,78.680,1.470,46.970
-0.300,-0.131,0.081,80.150,1.260,41.650
-0.296,-0.185,0.109,77.560,1.960,40.110
-0.294,-0.221,0.100,73.570,1.190,42.770
-0.302,-0.216,0.105,66.010,-2.590,42.770
-0.342,-0.154,0.139,57.190,-7.140,38.360
-0.373,-0.093,0.166,46.760,-10.360,34.230
-0.426,-0.078,0.164,40.180,-11.480,31.150
-0.488,-0.095,0.155,41.300,-9.380,27.720
-0.547,-0.126,0.171,48.300,-5.950,24.430
-0.602,-0.152,0.194,57.120,-0.910,20.930
-0.613,-0.194,0.221,65.940,2.730,16.590
-0.586,-0.226,0.254,72.170,4.690,11.970
-0.627,-0.246,0.286,53.760,3.220,6.090
-0.619,-0.259,0.309,60.130,-2.800,-0.210
-0.619,-0.288,0.300,46.060,-11.760,-4.270
-0.602,-0.273,0.287,32.130,-17.150,-7.070
-0.573,-0.257,0.220,22.540,-19.040,-8.330
-0.594,-0.241,0.173,18.270,-17.500,-9.310
-0.624,-0.244,0.143,19.110,-13.510,-10.080
-0.658,-0.261,0.131,24.500,-8.890,-11.900
-0.699,-0.310,0.132,35.070,-4.970,-15.330
-0.727,-0.366,0.156,43.680,-3.290,-18.900
-0.754,-0.421,0.202,51.590,-1.540,-22.400
-0.756,-0.471,0.282,56.280,0.000,-25.130
-0.745,-0.510,0.350,58.870,1.190,-26.530
-0.717,-0.538,0.402,58.170,4.200,-24.710
-0.703,-0.542,0.423,56.700,11.480,-21.630
-0.697,-0.525,0.418,55.300,22.120,-16.520
-0.692,-0.492,0.376,52.080,33.670,-8.260
-0.709,-0.452,0.340,46.060,44.870,-2.380
-0.745,-0.422,0.293,38.710,51.030,0.560
-0.801,-0.405,0.247,31.220,51.100,0.070
-0.852,-0.405,0.195,26.880,45.290,-3.290
-0.879,-0.416,0.177,19.950,35.140,-7.350
-0.886,-0.437,0.161,13.300,18.690,-10.990
-0.883,-0.472,0.150,8.190,7.280,-14.140
-0.873,-0.508,0.163,7.910,-1.190,-15.750
-0.845,-0.552,0.200,8.540,-5.320,-15.190
-0.804,-0.588,0.237,8.680,-3.780,-9.870
-0.772,-0.579,0.251,9.800,2.100,-5.180
-0.766,-0.561,0.250,11.060,9.520,-1.610
-0.774,-0.532,0.231,10.710,15.470,1.050
-0.789,-0.504,0.207,8.960,18.830,2.520
-0.806,-0.483,0.164,5.530,18.620,2.380
-0.840,-0.481,0.122,2.100,14.560,0.000
-0.864,-0.492,0.110,-0.560,8.680,-3.850
-0.873,-0.515,0.112,-1.820,2.310,-7.840
-0.866,-0.550,0.125,-1.190,-2.590,-11.270
-0.849,-0.591,0.142,2.380,-4.900,-12.320
-0.830,-0.612,0.154,7.350,-4.130,-12.040
-0.811,-0.615,0.174,9.870,-1.470,-10.290
-0.796,-0.590,0.183,11.130,2.660,-8.330
-0.793,-0.572,0.178,12.040,4.900,-6.720
-0.803,-0.559,0.168,10.010,6.580,-5.600
-0.822,-0.520,0.154,5.740,6.650,-4.970
-0.838,-0.496,0.133,-17.150,5.460,-6.230
-0.841,-0.505,0.124,-5.600,2.520,-7.350
-0.835,-0.524,0.118,-8.330,-1.470,-8.470
-0.839,-0.557,0.133,-10.570,-7.000,-9.660
-0.839,-0.589,0.145,-10.990,-11.550,-10.080
-0.836,-0.606,0.144,-9.310,-11.970,-9.170
-0.831,-0.621,0.139,-5.250,-10.220,-5.670
-0.815,-0.622,0.137,0.350,-6.300,-2.870
-0.805,-0.621,0.144,4.130,-2.660,-0.700
-0.806,-0.614,0.153,4.830,-0.210,1.750
-0.807,-0.589,0.131,3.570,3.290,3.850
-0.810,-0.565,0.112,1.260,4.060,4.760
-0.813,-0.547,0.119,-1.330,3.290,4.480
-0.811,-0.527,0.134,-4.200,1.610,3.150
-0.812,-0.530,0.140,-6.370,-1.120,1.120
-0.825,-0.555,0.148,-7.630,-5.040,-1.750
-0.821,-0.580,0.156,-6.790,-7.770,-3.150
-0.806,-0.582,0.159,-4.550,-7.420,-3.920
-0.795,-0.589,0.157,-0.630,-3.850,-4.340
-0.795,-0.611,0.146,3.500,-1.400,-4.550
-0.795,-0.627,0.156,7.210,0.420,-3.850
-0.796,-0.620,0.168,10.150,1.540,-3.220
-0.795,-0.605,0.180,11.690,2.030,-3.080
-0.795,-0.584,0.184,11.130,3.010,-3.290
-0.799,-0.567,0.184,10.290,4.830,-3.080
-0.802,-0.558,0.177,9.240,6.860,-3.220
-0.809,-0.555,0.158,7.490,8.120,-3.640
-0.817,-0.564,0.110,6.160,8.750,-3.220
-0.815,-0.590,0.082,5.600,7.630,-2.660
-0.813,-0.616,0.087,5.880,5.110,-1.960
-0.811,-0.614,0.114,6.510,2.100,-1.330
-0.807,-0.611,0.145,6.930,-0.490,-0.700
-0.796,-0.606,0.173,6.860,-2.030,0.350
-0.795,-0.590,0.197,6.020,-2.660,1.050
-0.798,-0.571,0.203,4.760,-2.450,1.330
-0.799,-0.563,0.193,4.410,-1.960,0.980
-0.796,-0.565,0.187,3.640,-1.050,1.190
-0.804,-0.559,0.176,2.660,0.070,1.400
-0.809,-0.553,0.163,1.050,0.140,1.190
-0.823,-0.554,0.155,-0.910,-0.840,0.210
-0.825,-0.581,0.146,-2.170,-2.590,-0.420
-0.823,-0.600,0.149,-2.730,-5.110,-0.700
-0.810,-0.615,0.156,-3.150,-6.720,-0.770
-0.797,-0.618,0.154,-2.520,-6.160,-0.350
-0.786,-0.621,0.170,-1.470,-3.990,0.700
-0.778,-0.609,0.181,-0.980,-1.260,2.940
-0.780,-0.586,0.188,-1.890,0.700,4.060
-0.789,-0.571,0.187,-3.430,0.910,4.060
-0.802,-0.560,0.181,-4.760,-17.710,3.570
-0.817,-0.554,0.165,-5.530,-1.890,3.080
-0.814,-0.557,0.156,-6.090,-3.920,2.170
-0.808,-0.559,0.155,-6.720,-5.950,1.260
-0.810,-0.567,0.148,-5.950,-7.700,0.490
-0.808,-0.595,0.134,-4.760,-8.680,0.490
-0.813,-0.607,0.132,-2.450,-9.450,0.630
-0.814,-0.615,0.147,-1.190,-9.170,1.190
-0.793,-0.608,0.165,-0.210,-7.420,1.960
-0.780,-0.597,0.182,0.490,-5.670,2.800
-0.781,-0.589,0.187,0.280,-4.060,3.640
-0.775,-0.574,0.185,-0.280,-3.010,4.270
-0.774,-0.563,0.181,-1.750,-3.220,4.130
-0.778,-0.550,0.180,-2.730,-3.710,3.430
-0.790,-0.548,0.176,-2.730,-3.920,2.450
-0.801,-0.558,0.158,-2.240,-4.340,1.120
-0.800,-0.562,0.151,-1.050,-4.760,-0.070
-0.801,-0.565,0.149,1.120,-4.970,-0.560
-0.808,-0.574,0.136,3.360,-4.410,-0.770
-0.808,-0.590,0.140,4.480,-3.500,-0.630
-0.804,-0.585,0.150,6.160,-2.520,-0.560
-0.795,-0.582,0.169,6.860,-1.610,-0.490
-0.796,-0.565,0.197,7.000,-0.490,-0.490
-0.804,-0.553,0.199,6.510,0.700,-0.630
-0.801,-0.547,0.187,5.600,1.260,-0.630
-0.801,-0.549,0.179,5.040,1.260,-0.770
-0.804,-0.550,0.174,4.970,0.910,-1.050
-0.814,-0.558,0.169,5.880,0.210,-1.890
-0.815,-0.565,0.171,5.320,0.000,-1.960
-0.812,-0.553,0.172,5.950,0.420,-2.100
-0.808,-0.553,0.164,7.210,0.770,-2.170
-0.808,-0.559,0.154,7.700,1.050,-2.170
-0.802,-0.567,0.156,7.350,0.350,-2.310
-0.791,-0.559,0.179,6.090,-1.190,-2.030
-0.781,-0.556,0.197,4.200,-2.170,-1.540

-0.146,-1.512,-0.989,-249.620,84.210,-166.320
-0.086,-1.721,-1.031,-264.110,75.810,-167.020
-0.053,-1.922,-1.087,-267.120,64.750,-163.590
-0.024,-2.080,-1.110,-254.030,54.460,-147.280
-0.007,-2.189,-1.143,-231.980,46.060,-129.430
0.019,-2.157,-1.173,-199.010,37.100,-110.530
0.082,-2.074,-1.188,-163.660,23.800,-91.980
0.277,-1.989,-1.267,-124.670,16.380,-73.500
0.409,-1.937,-1.316,-83.790,12.880,-54.740
0.557,-1.958,-1.326,-44.940,21.420,-37.450
0.422,-1.967,-1.529,-1.890,-11.760,-22.540
0.335,-2.112,-1.524,20.230,-40.600,-9.310
0.373,-2.260,-1.485,37.170,-58.800,3.850
0.362,-2.355,-1.449,45.080,-74.830,19.880
0.311,-2.382,-1.360,45.780,-91.840,37.590
0.271,-2.352,-1.320,43.540,-103.180,55.650
0.236,-2.295,-1.296,38.080,-115.920,72.240
0.213,-2.220,-1.297,36.890,-126.770,87.640
0.209,-2.154,-1.301,41.650,-134.400,101.220
0.208,-2.106,-1.292,59.710,-138.040,117.320
0.213,-2.065,-1.273,78.190,-138.110,128.870
0.216,-2.020,-1.254,99.960,-136.780,140.910
0.223,-1.953,-1.241,121.450,-132.720,152.600
0.236,-1.874,-1.203,140.420,-126.840,163.870
0.236,-1.785,-1.163,154.910,-124.110,175.000
0.229,-1.710,-1.108,164.920,-120.750,185.150
0.225,-1.653,-1.059,170.800,-115.710,194.320
0.220,-1.600,-1.019,174.440,-109.620,203.140
0.206,-1.548,-0.989,177.380,-102.900,214.340
0.185,-1.477,-0.948,179.130,-98.210,221.970
0.161,-1.429,-0.916,181.650,-93.730,229.180
0.134,-1.379,-0.870,185.640,-88.200,236.110
0.110,-1.328,-0.831,190.680,-82.670,241.430
0.085,-1.274,-0.801,196.070,-76.090,246.610
0.079,-1.205,-0.766,202.300,-63.420,250.390
0.095,-1.144,-0.738,209.300,-52.920,252.280
0.089,-1.105,-0.681,215.460,-44.380,253.680
0.041,-1.098,-0.596,216.160,-39.410,255.290
0.001,-1.064,-0.536,211.120,-40.530,258.580
-0.046,-0.962,-0.500,200.340,-47.180,263.690
-0.041,-0.859,-0.523,190.120,-49.630,264.600
-0.009,-0.720,-0.544,178.990,-49.420,262.710
0.020,-0.575,-0.531,164.990,-48.230,255.430
0.035,-0.435,-0.489,144.340,-49.490,243.110
0.033,-0.304,-0.381,117.180,-56.770,222.740
0.015,-0.225,-0.337,83.020,-64.400,195.230
-0.003,-0.129,-0.314,62.580,-67.550,165.550
-0.001,-0.042,-0.270,31.080,-79.940,127.750
-0.016,0.016,-0.264,-3.780,-102.550,102.480
-0.042,-0.011,-0.297,-15.750,-143.080,88.410
-0.051,-0.051,-0.264,-52.010,-199.920,82.530
0.047,-0.127,-0.149,-71.120,-195.440,84.070
0.369,-0.163,-0.216,-46.060,-87.150,75.390
0.370,-0.142,-0.449,-12.250,-63.560,87.430
0.193,-0.407,-0.491,18.830,-31.640,99.400
0.166,-0.390,-0.494,71.120,0.560,106.470
0.099,-0.219,-0.450,97.860,20.440,100.380
-0.006,-0.096,-0.347,111.020,27.160,90.440
-0.068,0.026,-0.231,115.780,29.540,78.960
-0.093,0.087,-0.115,114.170,27.020,67.480
-0.132,0.116,-0.021,104.370,20.790,58.170
-0.142,0.090,0.066,94.990,11.340,52.500
-0.141,0.061,0.102,88.200,6.230,49.350
-0.149,0.025,0.121,84.560,3.360,47.250
-0.174,-0.008,0.120,83.650,2.380,46.410
-0.212,-0.036,0.114,84.280,1.610,46.480
-0.237,-0.056,0.110,84.210,0.000,45.570
-0.258,-0.069,0.095,83.860,-1.330,44.730
-0.325,-0.090,0.092,82.180,-2.450,43.470
-0.358,-0.096,0.094,83.370,-2.520,40.810
-0.394,-0.113,0.099,87.290,-0.630,36.260
-0.414,-0.111,0.120,90.650,1.120,30.100
-0.439,-0.126,0.167,91.350,0.770,21.560
-0.454,-0.140,0.215,88.410,-1.330,11.900
-0.475,-0.142,0.272,82.460,-7.350,0.840
-0.501,-0.117,0.354,74.340,-16.730,-11.270
-0.521,-0.074,0.399,66.080,-17.850,-22.540
-0.536,-0.069,0.406,52.990,-12.040,-26.320
-0.575,-0.138,0.378,47.810,1.050,-18.620
-0.608,-0.247,0.328,51.730,22.470,7.070
-0.639,-0.390,0.275,58.940,47.460,30.660
-0.681,-0.443,0.222,66.080,60.130,48.930
-0.730,-0.400,0.210,66.010,59.430,57.190
-0.745,-0.333,0.198,54.040,41.790,54.880
-0.768,-0.279,0.201,38.640,13.230,44.660
-0.766,-0.275,0.236,19.880,-14.630,30.870
-0.753,-0.302,0.267,3.640,-38.990,17.570
-0.722,-0.353,0.304,-11.200,-59.850,8.610
-0.681,-0.399,0.338,-22.050,-63.420,6.020
-0.658,-0.425,0.349,-25.690,-55.300,9.240
-0.636,-0.429,0.363,-22.190,-31.570,13.580
-0.647,-0.399,0.344,-11.060,-10.150,16.660
-0.711,-0.376,0.330,0.700,2.310,15.680
-0.750,-0.362,0.297,5.390,8.750,12.320
-0.780,-0.374,0.262,8.330,10.850,6.860
-0.799,-0.407,0.233,10.640,8.890,1.120
-0.812,-0.453,0.214,13.020,2.590,-4.270
-0.827,-0.481,0.214,14.420,-11.130,-9.030
-0.831,-0.487,0.233,12.810,-22.960,-12.950
-0.813,-0.491,0.271,8.960,-30.520,-16.030
-0.770,-0.496,0.293,3.290,-28.350,-17.150
-0.743,-0.502,0.283,0.980,-21.980,-15.330
-0.739,-0.510,0.270,1.890,-14.070,-11.340
-0.754,-0.495,0.254,4.620,-5.320,-7.420
-0.777,-0.454,0.271,7.840,2.730,-4.970
-0.831,-0.412,0.279,9.030,5.320,-6.230
-0.854,-0.395,0.285,7.210,4.620,-9.100
-0.855,-0.421,0.272,5.110,2.240,-12.180
-0.849,-0.497,0.252,5.600,-2.170,-16.590
-0.852,-0.565,0.239,7.420,-6.230,-18.410
-0.836,-0.610,0.231,9.170,-8.120,-17.850
-0.809,-0.633,0.246,11.690,-7.770,-15.750
-0.783,-0.637,0.257,15.260,-2.520,-12.670
-0.770,-0.622,0.253,19.530,3.920,-8.820
-0.774,-0.592,0.237,19.810,10.780,-4.690
-0.789,-0.539,0.241,17.290,16.240,-1.750
-0.802,-0.491,0.236,11.130,19.250,-1.190
-0.826,-0.478,0.226,6.300,18.130,-3.780
-0.850,-0.488,0.221,1.400,14.490,-7.140
-0.861,-0.491,0.221,-2.730,9.100,-10.710
-0.858,-0.505,0.223,-5.320,2.870,-14.000
-0.846,-0.532,0.227,-5.810,-3.570,-16.380
-0.838,-0.570,0.232,-4.690,-5.250,-17.430
-0.815,-0.625,0.244,-2.100,-3.220,-15.890
-0.786,-0.634,0.262,0.560,1.120,-13.020
-0.773,-0.628,0.253,2.590,6.930,-9.450
-0.772,-0.616,0.229,3.430,12.950,-6.160
-0.783,-0.596,0.203,3.360,15.400,-3.710
-0.796,-0.579,0.187,2.030,16.030,-2.800
-0.822,-0.556,0.181,-0.630,14.420,-3.640
-0.842,-0.550,0.178,-4.830,11.060,-5.670
-0.843,-0.558,0.173,-6.720,7.140,-7.490
-0.833,-0.574,0.171,-6.860,4.060,-9.310
-0.817,-0.595,0.180,-6.580,2.030,-10.570
-0.793,-0.615,0.192,-5.250,1.960,-10.570
-0.781,-0.626,0.212,-3.780,3.080,-9.800
-0.780,-0.632,0.228,-1.960,4.620,-8.400
-0.780,-0.624,0.240,-1.330,6.650,-7.210
-0.781,-0.612,0.236,-2.170,8.470,-5.950
-0.783,-0.596,0.209,-3.150,9.520,-4.690
-0.793,-0.586,0.182,-4.620,8.750,-3.920
-0.798,-0.573,0.172,-5.600,8.050,-4.130
-0.806,-0.568,0.169,-6.230,7.350,-5.320
-0.810,-0.575,0.167,-6.930,6.580,-7.000
-0.808,-0.582,0.161,-5.740,5.110,-9.520
-0.797,-0.610,0.161,-2.520,3.920,-10.640
-0.787,-0.630,0.163,1.190,3.430,-10.920
-0.780,-0.651,0.171,4.970,3.500,-10.570
-0.776,-0.662,0.183,8.190,4.200,-9.520
-0.765,-0.663,0.198,10.220,4.970,-8.260
-0.757,-0.650,0.201,10.150,6.720,-6.720
-0.760,-0.633,0.192,8.540,7.980,-4.970
-0.769,-0.610,0.169,6.160,8.680,-3.570
-0.777,-0.588,0.150,3.150,8.260,-2.940
-0.780,-0.568,0.140,-2.170,6.580,-3.010
-0.781,-0.567,0.134,-6.370,3.710,-3.290
-0.787,-0.576,0.137,-8.400,0.210,-4.760
-0.790,-0.589,0.152,-7.700,-2.240,-6.440
-0.789,-0.605,0.170,-4.690,-2.660,-7.840
-0.796,-0.620,0.176,-0.280,-2.100,-8.610
-0.804,-0.639,0.184,3.920,-1.820,-9.030
-0.797,-0.654,0.193,8.540,-1.400,-8.610
-0.786,-0.655,0.198,11.130,-0.280,-7.490
-0.774,-0.652,0.195,11.130,1.190,-5.390
-0.768,-0.628,0.189,8.680,2.660,-3.430
-0.771,-0.610,0.174,5.040,2.870,-2.030
-0.770,-0.600,0.167,1.400,2.030,-1.190
-0.770,-0.586,0.170,-2.380,0.490,-1.050
-0.776,-0.576,0.173,-5.600,-0.980,-2.100
-0.782,-0.584,0.167,-6.860,-2.240,-2.730
-0.785,-0.594,0.170,-7.210,-3.780,-3.010
-0.782,-0.610,0.172,-5.320,-4.620,-3.500
-0.776,-0.626,0.177,-2.940,-4.060,-3.710
-0.778,-0.636,0.177,0.350,-3.430,-3.710
-0.778,-0.639,0.178,3.500,-2.870,-3.640
-0.771,-0.640,0.185,7.700,-2.030,-3.290
-0.762,-0.625,0.193,7.840,-0.630,-2.310
-0.762,-0.606,0.187,5.810,0.210,-1.260
-0.763,-0.592,0.183,2.100,-0.140,-0.210
-0.763,-0.584,0.181,-0.980,-1.680,-0.070
-0.767,-0.580,0.186,-3.710,-2.870,-0.700
-0.773,-0.574,0.189,-6.160,-3.640,-1.330
-0.775,-0.587,0.187,-8.050,-3.850,-1.540
-0.772,-0.598,0.187,-7.630,-4.270,-1.610
-0.772,-0.605,0.185,-5.880,-4.340,-2.240
-0.782,-0.615,0.182,-3.570,-4.410,-2.940
-0.785,-0.619,0.179,-0.420,-4.200,-3.780
-0.779,-0.630,0.180,1.470,-3.640,-3.920
-0.762,-0.633,0.190,2.730,-3.080,-2.940
-0.755,-0.624,0.185,3.290,-2.800,-1.540
-0.751,-0.623,0.175,2.940,-2.240,-0.420
-0.755,-0.612,0.176,2.170,-2.520,0.840
-0.763,-0.597,0.176,0.350,-2.380,1.330
-0.772,-0.581,0.181,-2.310,-2.870,0.980
-0.777,-0.573,0.182,-4.690,-3.920,0.140
-0.778,-0.581,0.181,-5.390,-5.250,-1.260
-0.782,-0.607,0.178,-4.060,-6.160,-2.100
-0.785,-0.618,0.178,-2.100,-6.510,-2.730
-0.778,-0.623,0.179,0.490,-5.950,-2.940

0.104,-1.834,-0.488,-239.540,47.810,-150.080
0.179,-1.907,-0.606,-235.480,44.800,-132.580
0.232,-2.020,-0.765,-229.810,40.180,-106.610
0.260,-2.185,-0.936,-220.220,34.860,-87.360
0.262,-2.302,-1.081,-212.030,26.810,-69.160
0.236,-2.407,-1.185,-200.550,14.210,-53.060
0.203,-2.469,-1.223,-186.970,-3.430,-36.540
0.192,-2.516,-1.253,-171.850,-14.350,-19.740
0.160,-2.556,-1.248,-154.000,-28.560,4.340
0.124,-2.594,-1.245,-125.860,-44.380,22.120
0.111,-2.619,-1.247,-99.120,-59.080,40.110
0.100,-2.645,-1.276,-68.320,-70.210,58.450
0.100,-2.630,-1.320,-37.100,-76.650,75.950
0.094,-2.582,-1.364,-8.260,-77.630,91.700
0.059,-2.508,-1.423,15.540,-87.570,106.470
0.020,-2.443,-1.440,33.600,-98.840,119.000
0.007,-2.403,-1.441,49.840,-104.790,129.990
0.010,-2.357,-1.433,68.950,-109.830,144.060
0.002,-2.328,-1.409,81.200,-113.190,154.490
-0.006,-2.301,-1.366,91.910,-115.500,164.920
-0.009,-2.289,-1.327,101.360,-117.460,175.140
0.124,-2.278,-1.262,110.320,-119.280,185.500
0.017,-2.282,-1.191,116.270,-121.590,196.350
0.020,-2.261,-1.132,120.050,-122.640,207.760
0.041,-2.213,-1.111,121.730,-121.520,219.520
0.087,-2.125,-1.082,123.410,-118.720,230.440
0.153,-1.993,-1.091,126.280,-112.770,246.190
0.224,-1.820,-1.130,128.030,-104.440,258.580
0.276,-1.658,-1.205,133.210,-93.660,270.270
0.332,-1.494,-1.299,139.720,-83.020,279.370
0.384,-1.332,-1.362,152.320,-75.040,285.880
0.416,-1.221,-1.314,161.000,-70.770,289.940
0.422,-1.133,-1.159,168.770,-70.350,294.210
0.426,-1.084,-0.996,161.140,-73.360,298.130
0.412,-1.032,-0.871,155.400,-75.740,301.840
0.389,-0.962,-0.732,152.390,-75.460,305.830
0.387,-0.871,-0.610,144.060,-72.660,309.400
0.371,-0.660,-0.511,132.370,-73.290,310.590
0.377,-0.488,-0.530,121.100,-72.170,310.380
0.380,-0.355,-0.525,111.090,-66.220,308.770
0.393,-0.234,-0.514,108.010,-54.390,307.370
0.416,-0.125,-0.503,107.660,-33.460,303.450
0.427,-0.015,-0.492,106.330,-23.800,292.950
0.410,0.120,-0.454,93.800,-25.480,270.340
0.364,0.307,-0.392,62.300,-38.710,236.810
0.273,0.468,-0.307,16.520,-61.670,166.670
0.190,0.579,-0.297,-40.950,-83.930,112.210
0.120,0.555,-0.229,-83.650,-114.310,63.420
0.061,0.440,-0.199,-127.400,-162.680,31.780
0.004,0.262,-0.274,-142.800,-245.000,25.690
-0.059,0.024,-0.318,-161.910,-358.890,34.650
0.405,-0.092,0.390,-162.750,-182.630,24.220
0.753,0.131,-0.317,-96.600,-119.280,39.060
0.521,-0.317,-0.244,-18.200,-51.800,57.330
0.283,-0.401,-0.183,88.690,-15.820,76.860
0.073,-0.021,-0.070,125.860,-0.280,68.040
-0.019,0.297,0.047,132.860,2.030,55.370
-0.080,0.415,0.104,128.170,0.630,45.500
-0.103,0.343,0.114,129.220,3.010,42.350
-0.161,0.199,0.119,139.720,8.330,39.830
-0.235,0.110,0.128,149.380,12.880,37.730
-0.290,0.108,0.143,150.640,13.020,35.350
-0.325,0.103,0.150,142.450,5.390,30.170
-0.308,0.062,0.169,128.520,-3.710,23.730
-0.334,0.028,0.193,110.530,-14.980,18.830
-0.362,0.007,0.230,89.880,-28.140,17.360
-0.387,-0.003,0.250,69.790,-32.480,17.920
-0.421,-0.032,0.250,53.480,-32.760,19.600
-0.464,-0.069,0.227,43.820,-29.890,20.650
-0.504,-0.102,0.210,42.000,-25.270,19.810
-0.542,-0.147,0.212,48.510,-20.370,14.420
-0.588,-0.177,0.227,54.110,-17.990,8.190
-0.628,-0.203,0.241,60.270,-16.100,0.420
-0.661,-0.232,0.252,65.940,-15.050,-9.030
-0.691,-0.259,0.268,68.320,-16.240,-19.740
-0.714,-0.283,0.260,67.480,-19.390,-31.780
-0.717,-0.281,0.255,64.610,-21.700,-44.940
-0.717,-0.280,0.227,59.990,-22.960,-56.280
-0.738,-0.302,0.248,56.490,-15.890,-58.940
-0.731,-0.394,0.259,58.590,3.080,-40.320
-0.729,-0.496,0.275,56.210,36.470,-9.380
-0.765,-0.606,0.249,64.610,72.870,24.290
-0.816,-0.628,0.176,69.580,78.680,47.110
-0.908,-0.523,0.134,66.710,61.040,54.040
-0.962,-0.356,0.149,50.260,31.640,44.590
-0.959,-0.234,0.158,26.740,-11.200,23.240
-0.923,-0.216,0.172,2.380,-40.250,-0.770
-0.900,-0.290,0.186,-18.410,-66.290,-19.670
-0.888,-0.383,0.199,-37.380,-87.290,-29.680
-0.867,-0.518,0.227,-48.090,-95.760,-24.990
-0.779,-0.599,0.268,-40.670,-59.430,-16.380
-0.658,-0.601,0.133,-9.310,-6.510,-4.760
-0.780,-0.633,0.141,18.060,9.940,4.620
-0.851,-0.572,0.142,31.150,21.070,9.520
-0.849,-0.488,0.148,34.370,29.470,8.330
-0.842,-0.399,0.132,29.960,29.750,0.980
-0.880,-0.417,0.127,23.940,20.580,-4.970
-0.908,-0.456,0.129,19.320,7.910,-10.990
-0.912,-0.470,0.136,14.840,-7.420,-17.850
-0.897,-0.478,0.166,7.280,-23.030,-23.730
-0.861,-0.484,0.218,-0.070,-31.150,-27.300
-0.817,-0.498,0.228,-3.220,-23.520,-28.280
-0.811,-0.521,0.199,0.560,-13.440,-26.250
-0.839,-0.549,0.181,7.420,-4.620,-19.600
-0.863,-0.537,0.156,15.190,2.660,-14.210
-0.866,-0.517,0.133,18.550,8.470,-10.500
-0.867,-0.491,0.126,19.670,12.180,-8.750
-0.876,-0.469,0.126,19.390,13.860,-8.680
-0.884,-0.469,0.139,17.920,12.250,-9.590
-0.883,-0.488,0.148,16.030,7.420,-10.850
-0.882,-0.504,0.156,14.630,1.960,-12.390
-0.865,-0.518,0.172,13.510,-0.490,-12.880
-0.835,-0.531,0.189,13.090,1.190,-12.250
-0.824,-0.532,0.201,13.930,4.130,-9.170
-0.826,-0.534,0.208,14.210,7.070,-6.580
-0.826,-0.532,0.191,14.280,9.870,-4.830
-0.824,-0.517,0.175,13.300,12.250,-3.780
-0.826,-0.494,0.146,12.600,13.930,-4.340
-0.837,-0.488,0.100,11.060,14.000,-6.230
-0.853,-0.487,0.082,10.010,11.060,-8.680
-0.853,-0.491,0.076,9.030,6.720,-11.270
-0.858,-0.507,0.084,9.170,2.590,-14.350
-0.856,-0.538,0.099,10.150,0.000,-17.010
-0.843,-0.571,0.111,11.970,-0.700,-17.290
-0.822,-0.597,0.130,12.600,0.210,-16.170
-0.804,-0.601,0.148,12.180,1.820,-13.790
-0.796,-0.598,0.156,10.780,3.500,-10.990
-0.793,-0.583,0.153,8.050,5.950,-8.260
-0.799,-0.560,0.151,4.270,6.860,-6.160
-0.815,-0.543,0.146,-0.210,6.650,-5.320
-0.830,-0.529,0.136,-4.900,4.970,-5.250
-0.849,-0.517,0.120,-6.230,3.150,-5.810
-0.854,-0.532,0.097,-6.160,1.400,-6.160
-0.857,-0.556,0.089,-4.480,-0.840,-5.950
-0.859,-0.578,0.089,-2.240,-3.150,-5.530
-0.851,-0.598,0.097,0.840,-4.200,-4.830
-0.846,-0.612,0.125,2.240,-4.200,-4.200
-0.839,-0.616,0.148,3.710,-3.500,-2.870
-0.830,-0.613,0.163,4.620,-1.820,-2.800
-0.825,-0.606,0.170,3.220,-0.210,-2.170
-0.823,-0.587,0.174,-0.140,0.840,-1.750
-0.826,-0.570,0.167,-3.570,0.980,-2.100
-0.832,-0.566,0.154,-6.650,0.700,-3.010
-0.832,-0.563,0.134,-8.120,0.140,-4.130
-0.838,-0.569,0.114,-7.910,-0.280,-5.740
-0.844,-0.600,0.101,-4.620,-0.840,-6.510
-0.846,-0.618,0.099,-1.190,-1.120,-6.860
-0.834,-0.635,0.108,3.150,-0.770,-6.720
-0.823,-0.641,0.125,7.210,-0.140,-6.300
-0.817,-0.637,0.134,9.380,0.630,-5.180
-0.813,-0.627,0.143,9.730,0.560,-4.200
-0.805,-0.601,0.153,6.650,0.140,-2.590
-0.802,-0.582,0.151,3.500,-0.770,-2.240
-0.797,-0.577,0.150,-0.350,-1.680,-1.750
-0.799,-0.564,0.117,-3.290,-3.080,-1.260
-0.815,-0.573,0.102,-5.110,-4.620,-1.400
-0.826,-0.579,0.096,-5.250,-5.740,-2.170
-0.821,-0.587,0.103,-3.360,-5.670,-2.940
-0.810,-0.598,0.110,-0.560,-5.180,-3.290
-0.807,-0.609,0.126,2.870,-4.760,-3.710
-0.808,-0.610,0.147,6.300,-3.920,-3.850
-0.802,-0.604,0.154,8.890,-3.500,-3.780
-0.790,-0.600,0.160,8.820,-3.150,-3.150
-0.786,-0.574,0.166,6.930,-3.640,-2.660
-0.789,-0.547,0.174,3.080,-4.760,-3.500
-0.793,-0.534,0.170,-0.490,-6.020,-4.340
-0.796,-0.534,0.152,-2.730,-7.490,-5.110
-0.800,-0.548,0.123,-3.780,-8.540,-5.530
-0.801,-0.553,0.113,-3.570,-8.750,-5.950
-0.806,-0.561,0.112,-2.800,-8.890,-6.440
-0.806,-0.567,0.116,-1.540,-8.890,-6.650
-0.805,-0.571,0.124,0.630,-7.980,-6.160
-0.796,-0.573,0.144,3.360,-7.000,-5.880
-0.785,-0.575,0.162,5.320,-5.740,-5.390
-0.779,-0.568,0.177,6.580,-4.900,-4.480
-0.776,-0.557,0.186,6.580,-4.690,-3.500
-0.770,-0.539,0.194,5.460,-4.550,-3.080
-0.765,-0.517,0.187,4.130,-4.410,-3.080
-0.771,-0.510,0.177,2.310,-4.760,-2.800
-0.775,-0.507,0.163,1.260,-5.320,-3.220
-0.784,-0.506,0.132,0.630,-5.880,-3.710
-0.787,-0.519,0.114,0.770,-6.160,-3.990
-0.786,-0.528,0.115,2.730,-6.370,-4.900
-0.782,-0.528,0.143,4.970,-6.300,-6.090
-0.777,-0.519,0.181,6.860,-5.390,-6.930
-0.770,-0.522,0.204,8.750,-4.270,-6.930
-0.763,-0.521,0.216,10.780,-3.220,-6.930
-0.755,-0.516,0.223,11.690,-1.470,-6.440
-0.749,-0.495,0.222,10.360,-0.840,-5.530
-0.749,-0.472,0.224,8.330,0.070,-5.390
-0.760,-0.465,0.219,5.950,-0.210,-6.370
-0.761,-0.471,0.195,4.340,0.070,-7.420
-0.762,-0.480,0.184,3.850,0.210,-8.190
-0.764,-0.486,0.173,3.430,0.560,-8.820
-0.761,-0.491,0.158,3.570,0.980,-9.520
-0.751,-0.508,0.159,4.130,1.120,-10.220
-0.739,-0.522,0.172,4.550,0.980,-10.150
-0.730,-0.516,0.198,4.620,1.540,-9.800
-0.718,-0.500,0.220,5.530,2.940,-9.730

0.025,-1.847,-0.489,-134.610,3.990,-24.360
0.020,-1.886,-0.528,-121.730,2.170,-12.810
0.016,-1.916,-0.581,-101.290,-0.840,1.680
0.020,-1.933,-0.639,-83.930,-1.120,12.110
0.022,-1.926,-0.697,-64.890,-0.630,22.540
0.045,-1.913,-0.704,-46.620,7.770,31.710
0.087,-1.893,-0.720,-29.260,12.320,41.090
0.052,-1.900,-0.727,-17.360,2.730,50.960
0.069,-1.921,-0.727,-9.170,-5.950,60.760
0.095,-1.972,-0.755,-2.030,-15.190,88.130
0.113,-2.057,-0.780,7.770,-23.310,82.670
0.145,-2.095,-0.797,16.170,-29.470,93.800
0.164,-2.111,-0.834,23.240,-35.770,105.280
0.183,-2.094,-0.865,30.800,-41.930,116.900
0.196,-2.069,-0.883,37.520,-47.390,129.150
0.188,-2.037,-0.898,45.150,-55.230,140.700
0.176,-2.002,-0.895,54.110,-60.270,150.360
0.150,-1.969,-0.897,63.910,-63.630,158.410
0.119,-1.946,-0.888,74.270,-66.500,165.060
0.093,-1.948,-0.871,83.090,-67.970,171.780
0.066,-1.941,-0.864,95.480,-68.460,179.130
0.042,-1.915,-0.855,106.330,-67.410,182.980
0.033,-1.900,-0.883,138.460,-60.690,185.780
0.036,-1.865,-0.690,127.820,-63.280,191.170
0.098,-1.830,-0.797,128.170,-63.700,197.400
0.115,-1.784,-0.796,132.300,-64.400,203.630
0.125,-1.737,-0.756,134.820,-64.750,210.700
0.162,-1.705,-0.785,127.120,-62.650,217.560
0.178,-1.642,-0.791,122.640,-60.900,224.980
0.180,-1.565,-0.793,117.740,-60.340,233.730
0.176,-1.446,-0.804,117.810,-60.340,238.770
0.157,-1.367,-0.747,108.780,-65.170,243.250
0.151,-1.320,-0.755,100.800,-66.780,246.540
0.144,-1.266,-0.760,98.980,-66.920,249.480
0.130,-1.207,-0.728,97.720,-69.860,250.810
0.117,-1.160,-0.646,93.450,-77.490,252.140
0.106,-1.131,-0.587,86.800,-81.690,252.350
0.101,-1.098,-0.533,78.330,-85.260,252.700
0.119,-1.011,-0.494,70.210,-88.760,254.100
0.135,-0.917,-0.422,58.450,-92.120,254.870
0.143,-0.765,-0.362,49.000,-93.870,253.400
0.136,-0.629,-0.332,40.390,-93.240,250.040
0.126,-0.488,-0.324,33.180,-90.160,244.720
0.116,-0.372,-0.319,26.320,-89.110,239.050
0.095,-0.260,-0.331,21.350,-92.050,232.610
0.047,-0.200,-0.313,10.990,-97.720,223.510
0.019,-0.160,-0.263,4.200,-103.670,212.380
0.000,-0.111,-0.248,20.440,-104.440,200.340
-0.012,-0.050,-0.140,20.930,-107.100,188.160
-0.037,-0.014,-0.098,21.000,-112.560,178.430
-0.045,-0.123,-0.098,13.230,-107.100,165.970
-0.043,-0.173,-0.050,18.410,-90.510,158.340
0.024,-0.199,-0.063,26.880,-67.760,153.370
0.005,-0.202,-0.037,35.420,-55.510,150.010
-0.018,-0.140,0.000,41.860,-44.800,145.740
-0.024,-0.052,0.062,43.050,-33.320,138.880
-0.041,0.059,0.095,39.970,-27.510,130.550
-0.071,0.167,0.096,35.420,-23.310,119.630
-0.109,0.245,0.082,31.150,-21.770,107.240
-0.164,0.282,0.073,28.210,-21.700,93.240
-0.210,0.281,0.070,27.160,-22.120,75.180
-0.276,0.256,0.064,33.180,-23.940,63.420
-0.295,0.214,0.066,41.580,-24.710,53.200
-0.301,0.163,0.085,50.890,-26.460,43.820
-0.303,0.102,0.143,57.820,-26.670,36.190
-0.264,0.069,0.137,63.210,-25.130,34.370
-0.243,0.001,0.132,65.310,-23.800,35.280
-0.244,-0.060,0.156,65.170,-21.140,35.840
-0.287,-0.043,0.222,66.360,-18.830,35.070
-0.330,0.024,0.284,65.940,-16.870,32.200
-0.391,0.110,0.322,62.860,-16.590,28.630
-0.457,0.181,0.335,57.260,-17.780,22.540
-0.522,0.211,0.319,50.330,-20.090,14.840
-0.570,0.194,0.305,44.170,-23.380,3.010
-0.601,0.145,0.302,42.560,-26.040,-5.740
-0.617,0.081,0.295,44.800,-26.670,-13.020
-0.652,-0.019,0.300,45.990,-26.810,-17.290
-0.655,-0.066,0.297,48.930,-24.570,-18.480
-0.657,-0.095,0.296,52.710,-22.260,-19.880
-0.659,-0.104,0.312,54.390,-21.000,-21.630
-0.662,-0.103,0.337,52.990,-18.830,-22.540
-0.663,-0.069,0.351,50.540,-16.590,-24.640
-0.694,-0.074,0.363,46.830,-14.490,-26.390
-0.739,-0.082,0.354,44.450,-11.760,-28.140
-0.783,-0.117,0.347,44.100,-8.470,-29.050
-0.837,-0.171,0.332,45.010,-4.480,-28.910
-0.860,-0.223,0.331,47.040,-3.220,-29.120
-0.891,-0.270,0.363,48.790,-4.620,-30.870
-0.909,-0.309,0.387,46.480,-7.700,-33.180
-0.920,-0.327,0.394,38.080,-11.340,-34.370
-0.914,-0.339,0.402,31.850,-11.340,-33.180
-0.885,-0.354,0.372,26.320,-8.680,-29.890
-0.877,-0.367,0.334,21.140,-6.090,-25.270
-0.873,-0.349,0.316,16.170,-3.360,-22.120
-0.874,-0.328,0.304,10.220,-1.120,-21.000
-0.881,-0.313,0.285,6.160,0.980,-19.040
-0.910,-0.323,0.258,4.130,2.870,-19.950
-0.926,-0.337,0.238,2.450,2.380,-21.980
-0.928,-0.374,0.236,0.840,0.770,-24.220
-0.927,-0.410,0.231,1.470,-1.540,-25.760
-0.911,-0.470,0.233,4.900,-0.770,-25.830
-0.878,-0.522,0.242,9.940,1.470,-24.640
-0.854,-0.546,0.262,16.030,4.620,-23.240
-0.828,-0.533,0.278,20.580,6.510,-21.420
-0.826,-0.502,0.273,22.330,6.930,-19.390
-0.825,-0.450,0.272,17.920,6.090,-16.940
-0.839,-0.401,0.252,12.530,2.730,-17.710
-0.849,-0.384,0.237,5.600,-1.890,-19.040
-0.876,-0.393,0.228,-0.210,-5.880,-21.490
-0.905,-0.404,0.227,-3.500,-9.380,-24.360
-0.911,-0.429,0.231,-4.830,-10.500,-26.110
-0.908,-0.484,0.236,-3.500,-9.870,-26.950
-0.904,-0.518,0.238,-0.350,-8.680,-26.390
-0.901,-0.537,0.239,3.710,-7.630,-24.850
-0.873,-0.549,0.262,7.560,-4.480,-22.470
-0.855,-0.536,0.280,10.570,-2.240,-19.950
-0.846,-0.509,0.289,11.340,-0.980,-19.110
-0.845,-0.472,0.292,8.330,-1.190,-18.690
-0.853,-0.433,0.285,1.610,-3.010,-19.530
-0.869,-0.429,0.267,-4.760,-4.690,-19.950
-0.871,-0.434,0.247,-10.360,-6.370,-20.160
-0.877,-0.459,0.234,-15.820,-7.980,-20.370
-0.875,-0.482,0.226,-18.830,-8.120,-19.950
-0.874,-0.511,0.223,-19.880,-7.560,-19.250
-0.867,-0.544,0.224,-17.010,-6.510,-19.040
-0.849,-0.555,0.233,-14.840,-5.740,-18.410
-0.829,-0.564,0.246,-12.530,-4.480,-17.290
-0.810,-0.556,0.258,-11.690,-4.760,-17.780
-0.798,-0.533,0.265,-11.690,-4.410,-16.030
-0.800,-0.539,0.248,-9.590,-1.890,-13.440
-0.813,-0.519,0.238,-6.650,-1.120,-14.210
-0.836,-0.476,0.223,-7.280,-2.590,-15.120
-0.851,-0.468,0.199,-7.350,-5.320,-17.220
-0.850,-0.481,0.201,-8.120,-7.280,-19.670
-0.843,-0.490,0.193,-9.380,-10.360,-23.590
-0.847,-0.510,0.199,-14.140,-14.980,-25.900
-0.835,-0.538,0.203,-17.290,-17.710,-27.300
-0.816,-0.553,0.199,-17.220,-18.900,-27.790
-0.790,-0.565,0.216,-14.420,-17.990,-27.650
-0.784,-0.562,0.227,-10.920,-17.500,-27.790
-0.783,-0.565,0.246,-9.520,-15.330,-21.140
-0.797,-0.588,0.242,-5.600,-11.760,-14.630
-0.809,-0.590,0.232,-1.400,-8.540,-8.750
-0.820,-0.581,0.200,3.290,-3.920,-2.450
-0.839,-0.582,0.171,6.650,-0.350,3.080
-0.837,-0.569,0.146,10.710,1.960,5.320
-0.835,-0.548,0.160,13.510,2.520,5.670
-0.832,-0.535,0.177,15.470,2.170,4.970
-0.823,-0.545,0.197,16.660,2.170,4.200
-0.817,-0.563,0.211,17.360,2.100,3.640
-0.808,-0.567,0.225,17.360,2.520,3.920
-0.801,-0.565,0.247,16.660,2.730,4.340
-0.795,-0.556,0.266,15.050,2.590,4.480
-0.796,-0.544,0.284,12.670,2.310,4.550
-0.801,-0.531,0.294,9.870,1.400,2.450
-0.795,-0.501,0.294,7.000,-0.980,0.630
-0.803,-0.491,0.269,2.310,-4.130,-0.350
-0.802,-0.510,0.243,-1.750,-6.790,-0.420
-0.786,-0.540,0.226,-3.430,-7.280,-0.490
-0.777,-0.557,0.236,-4.270,-7.070,0.070
-0.783,-0.553,0.252,-4.060,-6.440,0.000
-0.794,-0.533,0.273,-4.690,-6.160,0.280
-0.800,-0.525,0.284,-6.370,-5.950,0.210
-0.795,-0.515,0.289,-7.000,-4.690,0.420
-0.797,-0.515,0.291,-5.250,-2.520,0.840
-0.805,-0.505,0.297,-2.450,-0.630,1.050
-0.813,-0.508,0.301,0.000,0.560,0.280
-0.804,-0.491,0.299,0.210,-0.070,-3.360
-0.791,-0.472,0.293,-0.560,-1.960,-7.140
-0.782,-0.466,0.280,-1.260,-3.640,-10.850
-0.794,-0.466,0.265,-1.680,-6.300,-14.700
-0.804,-0.470,0.247,-2.520,-7.000,-16.030
-0.796,-0.482,0.239,-2.940,-6.230,-16.380
-0.784,-0.475,0.243,-2.940,-5.530,-17.500
-0.772,-0.469,0.259,-3.080,-4.690,-18.690
-0.755,-0.454,0.270,-2.940,-4.760,-20.860
-0.752,-0.442,0.272,-2.800,-2.590,-17.500
-0.777,-0.481,0.263,1.610,3.290,-10.850
-0.784,-0.509,0.256,8.470,9.660,-4.900
-0.765,-0.501,0.261,17.360,14.560,2.310
-0.752,-0.489,0.274,22.400,17.920,6.440
-0.746,-0.488,0.273,26.880,20.580,9.030
-0.743,-0.482,0.264,31.080,23.590,12.110
-0.747,-0.468,0.253,34.370,25.970,14.280
-0.743,-0.439,0.242,35.350,26.530,14.280
-0.726,-0.398,0.243,33.390,23.730,12.740
-0.722,-0.369,0.248,27.370,20.230,10.430
-0.713,-0.355,0.263,19.740,18.480,9.660
-0.709,-0.365,0.252,14.980,14.350,4.130
-0.741,-0.343,0.270,9.240,9.450,-2.450
-0.742,-0.346,0.266,4.900,6.230,-7.210
-0.742,-0.376,0.264,2.870,4.480,-12.110
-0.742,-0.400,0.260,3.570,4.410,-13.650
-0.741,-0.423,0.256,5.530,5.390,-14.280
-0.738,-0.435,0.263,6.790,5.950,-14.560
-0.727,-0.439,0.264,6.230,6.020,-14.630
-0.710,-0.428,0.250,5.110,5.530,-13.930
-0.695,-0.405,0.241,2.730,4.620,-14.000
-0.680,-0.381,0.238,-0.770,3.010,-16.240

0.225,-1.503,-0.639,-271.040,28.910,-67.340
0.292,-1.545,-0.754,-287.980,32.130,-61.460
0.323,-1.641,-0.916,-287.700,30.800,-56.700
0.322,-1.751,-1.069,-272.370,23.870,-50.330
0.305,-1.859,-1.189,-242.830,18.060,-41.020
0.316,-1.953,-1.266,-200.550,9.030,-30.240
0.336,-2.051,-1.288,-151.690,2.520,-17.990
0.355,-2.095,-1.269,-100.100,-4.270,-3.150
0.359,-2.123,-1.223,-52.990,-15.190,17.640
0.345,-2.095,-1.183,-7.350,-30.240,32.970
0.351,-2.037,-1.140,10.710,-44.870,48.300
0.315,-2.019,-1.137,15.960,-57.890,61.670
0.249,-2.026,-1.160,11.620,-68.810,73.990
0.204,-2.056,-1.220,1.330,-78.960,85.190
0.184,-2.102,-1.270,-9.940,-84.980,96.460
0.169,-2.158,-1.307,-18.970,-90.650,108.290
0.156,-2.354,-1.343,-21.140,-95.830,124.530
0.141,-2.332,-1.388,-11.690,-99.890,137.970
0.163,-2.368,-1.390,3.500,-105.490,152.950
0.207,-2.361,-1.397,21.560,-110.530,170.030
0.255,-2.305,-1.468,81.550,-115.220,187.740
0.358,-2.217,-1.343,63.140,-117.880,204.680
0.424,-2.106,-1.418,70.980,-119.910,218.610
0.440,-2.007,-1.362,77.630,-119.560,235.690
0.459,-1.857,-1.430,82.040,-118.720,247.450
0.487,-1.707,-1.400,82.390,-119.700,257.390
0.517,-1.560,-1.361,80.360,-120.470,263.620
0.537,-1.431,-1.317,78.050,-121.940,266.560
0.569,-1.328,-1.223,74.410,-124.950,267.820
0.594,-1.231,-1.185,70.560,-125.370,268.590
0.594,-1.151,-1.170,73.780,-124.670,267.190
0.563,-1.120,-1.087,84.560,-125.090,263.620
0.582,-1.119,-0.993,71.050,-123.270,262.920
0.579,-1.069,-0.916,65.870,-124.110,263.970
0.581,-0.987,-0.874,61.740,-126.350,266.350
0.576,-0.817,-0.794,58.730,-129.920,267.960
0.573,-0.624,-0.728,53.900,-134.890,267.190
0.554,-0.432,-0.687,47.950,-136.360,264.530
0.533,-0.302,-0.687,44.660,-131.880,259.420
0.517,-0.215,-0.659,43.960,-125.930,252.700
0.495,-0.110,-0.593,45.990,-120.540,246.470
0.481,-0.007,-0.488,48.230,-115.710,239.190
0.456,0.081,-0.379,48.440,-109.620,226.590
0.429,0.130,-0.298,47.670,-101.500,213.780
0.378,0.121,-0.220,45.780,-93.170,198.100
0.331,0.124,-0.152,42.280,-84.420,182.210
0.301,0.144,-0.097,33.180,-78.260,166.040
0.277,0.106,-0.066,20.160,-75.880,150.430
0.260,0.056,-0.037,7.210,-78.610,134.260
0.247,0.075,0.045,-5.390,-85.820,120.540
0.253,0.126,0.074,-18.690,-85.960,107.170
0.227,0.188,0.079,-25.760,-89.460,94.780
0.183,0.186,0.116,-36.260,-87.360,82.460
0.166,0.198,0.118,-32.130,-79.310,70.910
0.168,0.199,0.136,-25.200,-76.370,57.680
0.140,0.187,0.147,-16.310,-75.180,50.960
0.085,0.162,0.168,-12.950,-74.760,44.870
0.016,0.149,0.162,-10.430,-75.600,40.180
-0.071,0.175,0.105,10.570,-70.350,37.100
-0.183,0.146,0.141,20.930,-63.770,31.850
-0.262,0.099,0.152,26.320,-58.660,25.480
-0.340,0.027,0.166,29.050,-54.600,18.830
-0.408,-0.036,0.186,28.490,-51.170,12.950
-0.464,-0.102,0.202,28.840,-47.110,7.070
-0.508,-0.165,0.196,28.700,-42.560,1.540
-0.546,-0.242,0.169,29.820,-37.730,-1.190
-0.574,-0.287,0.135,31.290,-32.760,-2.800
-0.597,-0.310,0.082,33.460,-27.860,-3.710
-0.616,-0.318,0.034,34.580,-23.730,-4.060
-0.646,-0.304,-0.013,36.260,-19.530,-4.130
-0.665,-0.307,-0.033,37.660,-17.990,-5.460
-0.701,-0.328,-0.061,39.970,-17.150,-7.980
-0.732,-0.408,-0.066,41.790,-16.240,-10.640
-0.758,-0.473,-0.063,44.380,-15.330,-12.040
-0.763,-0.535,-0.047,46.410,-14.070,-12.600
-0.761,-0.578,-0.015,46.830,-12.250,-11.970
-0.757,-0.610,-0.011,46.270,-10.850,-10.710
-0.745,-0.636,-0.007,45.990,-8.750,-8.470
-0.729,-0.649,-0.013,42.630,-5.460,-4.200
-0.724,-0.642,-0.019,40.320,-1.610,-1.540
-0.735,-0.619,-0.035,38.990,2.730,0.280
-0.763,-0.596,-0.089,39.130,8.610,1.190
-0.785,-0.591,-0.122,41.230,11.900,1.400
-0.797,-0.585,-0.143,46.690,13.510,1.190
-0.783,-0.582,-0.118,43.470,11.620,0.630
-0.773,-0.595,-0.108,44.520,8.680,-0.630
-0.768,-0.591,-0.067,47.670,5.460,-0.980
-0.760,-0.594,-0.038,48.370,3.640,-1.050
-0.756,-0.605,-0.023,47.740,2.520,-0.490
-0.757,-0.599,-0.010,45.640,1.890,0.840
-0.765,-0.589,-0.018,40.600,2.380,1.470
-0.775,-0.563,-0.049,34.650,2.310,1.050
-0.791,-0.554,-0.081,28.350,1.540,0.000
-0.803,-0.543,-0.106,24.500,-0.630,-1.750
-0.804,-0.549,-0.102,19.390,-3.150,-4.340
-0.804,-0.558,-0.100,17.990,-4.690,-5.250
-0.794,-0.584,-0.095,18.060,-4.620,-5.320
-0.782,-0.596,-0.078,19.460,-2.730,-3.710
-0.771,-0.590,-0.064,20.860,-1.260,-1.470
-0.766,-0.572,-0.046,21.910,0.770,-0.070
-0.763,-0.555,-0.033,20.580,2.730,1.330
-0.772,-0.519,-0.030,19.600,4.480,1.260
-0.778,-0.511,-0.032,18.130,6.510,0.490
-0.783,-0.498,-0.040,16.590,9.030,-0.560
-0.780,-0.506,-0.057,15.890,11.340,-1.960
-0.788,-0.518,-0.078,17.570,13.720,-3.570
-0.795,-0.535,-0.090,20.440,14.980,-5.180
-0.802,-0.552,-0.088,22.330,15.050,-6.160
-0.794,-0.571,-0.092,23.870,14.280,-5.950
-0.786,-0.584,-0.087,24.430,12.600,-5.040
-0.782,-0.586,-0.080,23.730,10.990,-3.780
-0.769,-0.576,-0.081,20.300,9.730,-2.170
-0.750,-0.565,-0.091,15.960,8.610,-0.630
-0.755,-0.551,-0.101,12.740,6.930,0.280
-0.765,-0.537,-0.096,9.590,5.040,0.070
-0.775,-0.524,-0.094,7.420,3.430,-0.770
-0.789,-0.517,-0.083,6.230,1.610,-2.450
-0.802,-0.543,-0.078,6.090,-0.140,-4.200
-0.810,-0.577,-0.079,7.280,-1.050,-5.180
-0.803,-0.607,-0.084,9.520,-1.120,-4.760
-0.797,-0.621,-0.085,9.870,-0.840,-3.640
-0.799,-0.621,-0.084,9.030,-1.750,-2.800
-0.793,-0.621,-0.080,3.850,-3.360,-2.030
-0.781,-0.610,-0.080,-0.770,-4.340,-1.330
-0.775,-0.604,-0.081,-4.760,-5.530,-0.770
-0.779,-0.594,-0.075,-7.490,-6.720,-0.700
-0.791,-0.592,-0.072,-8.540,-7.210,-1.820
-0.800,-0.590,-0.073,-7.980,-6.580,-2.520
-0.802,-0.580,-0.080,-5.320,-5.250,-2.590
-0.813,-0.580,-0.082,-1.890,-4.200,-3.290
-0.818,-0.590,-0.080,0.420,-4.270,-4.410
-0.818,-0.593,-0.071,3.010,-4.410,-5.950
-0.810,-0.613,-0.057,5.530,-3.780,-7.140
-0.805,-0.626,-0.054,5.390,-2.450,-7.420
-0.788,-0.644,-0.073,4.270,-0.560,-6.440
-0.779,-0.647,-0.080,2.660,0.000,-4.970
-0.783,-0.629,-0.077,0.980,0.000,-4.130
-0.783,-0.615,-0.072,-1.470,-0.490,-4.340
-0.781,-0.616,-0.077,-2.660,-1.260,-4.690
-0.783,-0.621,-0.095,-1.890,-2.100,-4.830
-0.786,-0.629,-0.110,1.050,-1.750,-5.040
-0.786,-0.633,-0.105,4.410,-1.610,-5.530
-0.785,-0.633,-0.093,7.770,-1.750,-6.160
-0.782,-0.634,-0.080,8.820,-2.520,-6.020
-0.775,-0.634,-0.073,9.310,-3.220,-5.740
-0.780,-0.632,-0.068,8.890,-4.270,-5.390
-0.775,-0.624,-0.072,7.630,-5.040,-5.180
-0.770,-0.621,-0.079,4.760,-5.950,-4.970
-0.768,-0.623,-0.084,2.030,-6.720,-4.620
-0.770,-0.617,-0.081,0.700,-7.280,-4.550
-0.780,-0.619,-0.077,-0.280,-7.140,-4.830
-0.785,-0.615,-0.070,-0.280,-6.580,-5.250
-0.791,-0.615,-0.072,0.420,-6.090,-5.880
-0.793,-0.621,-0.076,2.240,-5.600,-6.860
-0.791,-0.629,-0.083,4.060,-5.180,-7.490
-0.786,-0.637,-0.081,5.880,-4.200,-8.190
-0.781,-0.641,-0.069,6.790,-1.820,-8.470
-0.770,-0.632,-0.077,6.860,0.140,-8.050
-0.771,-0.630,-0.085,5.880,1.610,-7.140
-0.766,-0.634,-0.095,3.010,1.750,-6.090
-0.765,-0.642,-0.095,0.140,0.840,-5.460
-0.763,-0.647,-0.096,-1.120,-0.140,-4.970
-0.770,-0.655,-0.091,-1.050,-0.420,-5.110
-0.778,-0.662,-0.091,0.840,0.070,-4.830
-0.781,-0.660,-0.087,4.620,0.980,-4.900
-0.785,-0.654,-0.087,7.910,1.890,-4.900
-0.787,-0.651,-0.084,10.290,2.310,-5.460
-0.782,-0.652,-0.081,12.320,2.940,-5.810
-0.776,-0.656,-0.073,13.510,3.290,-5.810
-0.771,-0.657,-0.056,13.160,3.430,-5.740
-0.762,-0.650,-0.049,11.550,4.480,-5.810
-0.751,-0.643,-0.076,8.610,5.880,-5.180
-0.748,-0.641,-0.101,5.180,6.020,-4.270
-0.753,-0.647,-0.111,2.940,4.130,-3.920
-0.760,-0.651,-0.104,1.820,1.260,-3.430
-0.760,-0.654,-0.085,1.750,-1.750,-3.150
-0.760,-0.653,-0.075,3.430,-2.940,-3.080
-0.767,-0.662,-0.067,5.880,-2.940,-3.290
-0.768,-0.664,-0.064,8.820,-2.380,-3.500
-0.765,-0.661,-0.061,12.250,-2.240,-3.640
-0.767,-0.658,-0.052,13.230,-2.730,-3.850
-0.763,-0.653,-0.038,12.740,-4.270,-4.620
-0.757,-0.644,-0.029,11.340,-5.040,-5.530
-0.745,-0.643,-0.013,7.490,-5.600,-5.740
-0.743,-0.635,-0.020,2.170,-5.530,-4.900
-0.735,-0.641,-0.055,-0.560,-4.340,-3.990
-0.740,-0.651,-0.081,-2.380,-4.060,-2.800
-0.738,-0.637,-0.082,-3.220,-4.970,-1.470
-0.735,-0.629,-0.077,-3.430,-6.230,-1.190
-0.740,-0.639,-0.070,-0.980,-7.350,-1.330
-0.743,-0.644,-0.060,2.310,-7.490,-1.330
-0.733,-0.632,-0.056,6.300,-6.650,-0.910
-0.737,-0.626,-0.050,10.080,-6.160,-1.120
-0.746,-0.623,-0.046,12.600,-6.510,-2.450
-0.741,-0.617,-0.034,13.790,-7.210,-4.900
-0.729,-0.620,-0.026,13.720,-7.910,-5.460
-0.720,-0.617,-0.018,13.510,-8.470,-5.600
-0.714,-0.610,-0.012,12.670,-8.050,-5.320
-0.705,-0.597,-0.019,9.590,-7.280,-4.690

0.394,-1.662,-0.290,-277.130,64.470,-202.370
0.438,-1.667,-0.440,-295.260,71.890,-191.170
0.481,-1.647,-0.572,-310.730,72.940,-180.880
0.500,-1.584,-0.740,-320.250,72.030,-171.290
0.509,-1.541,-0.899,-323.890,69.930,-161.980
0.494,-1.514,-1.008,-311.500,65.800,-149.100
0.477,-1.523,-1.110,-294.980,64.960,-138.250
0.481,-1.532,-1.230,-271.110,61.810,-122.220
0.508,-1.648,-1.299,-235.200,50.890,-97.790
0.577,-1.784,-1.245,-190.400,49.980,-108.430
0.640,-1.535,-1.257,-149.100,35.980,-93.170
0.677,-1.894,-1.068,-100.100,73.780,-32.760
0.834,-2.181,-1.238,-22.400,78.260,-6.650
0.679,-2.019,-1.201,8.890,59.150,-12.950
0.651,-1.745,-1.171,5.320,39.620,-14.700
0.628,-1.684,-1.207,-14.070,21.140,-13.650
0.596,-1.721,-1.295,-31.990,-1.330,-5.320
0.562,-1.773,-1.367,-42.840,-15.540,6.720
0.534,-1.814,-1.441,-43.540,-28.700,17.780
0.491,-1.860,-1.499,-39.410,-42.280,29.750
0.481,-1.952,-1.542,-30.100,-56.840,36.260
0.505,-2.060,-1.597,-17.640,-69.930,45.780
0.539,-2.194,-1.626,-3.570,-82.880,59.010
0.630,-2.326,-1.637,3.920,-97.090,75.880
0.720,-2.423,-1.680,17.080,-108.640,95.620
0.759,-2.448,-1.702,31.360,-120.820,117.390
0.769,-2.380,-1.749,56.630,-131.880,146.930
0.795,-2.228,-1.760,67.480,-141.540,168.070
0.811,-2.095,-1.782,83.650,-149.870,186.970
0.812,-1.994,-1.743,94.080,-159.950,204.050
0.798,-1.950,-1.697,106.470,-170.660,219.310
0.769,-1.941,-1.596,118.440,-179.690,233.730
0.745,-1.951,-1.464,129.710,-185.570,247.590
0.746,-1.939,-1.343,140.840,-186.550,261.940
0.767,-1.873,-1.243,146.790,-184.030,277.200
0.806,-1.734,-1.171,150.850,-179.970,295.400
0.830,-1.566,-1.140,153.300,-175.140,305.480
0.853,-1.336,-1.114,155.540,-171.780,313.110
0.860,-1.160,-1.064,159.880,-171.360,319.480
0.863,-1.018,-0.997,164.710,-172.900,324.450
0.865,-0.894,-0.914,173.390,-174.160,327.950
0.826,-0.793,-0.779,184.100,-170.940,329.630
0.785,-0.663,-0.677,196.490,-163.730,330.330
0.716,-0.489,-0.585,207.970,-153.860,328.370
0.646,-0.336,-0.528,217.910,-142.030,320.950
0.561,-0.176,-0.491,219.800,-127.890,306.670
0.468,-0.065,-0.449,210.210,-113.260,292.670
0.379,-0.000,-0.417,192.150,-98.070,275.940
0.334,-0.064,-0.373,163.590,-84.980,252.910
0.294,-0.234,-0.382,135.660,-74.620,227.570
0.289,-0.379,-0.382,116.480,-89.320,206.780
0.325,-0.442,-0.318,111.580,-73.850,195.230
0.332,-0.373,-0.225,115.500,-74.620,191.240
0.313,-0.187,-0.134,119.490,-71.750,186.760
0.267,0.019,-0.069,115.360,-66.150,172.480
0.215,0.246,-0.031,96.460,-55.790,161.350
0.205,0.320,0.006,61.040,-48.580,159.040
0.134,0.255,-0.148,69.510,-45.570,144.200
0.088,0.195,-0.139,72.870,-46.690,122.850
0.069,0.115,-0.131,70.490,-43.750,100.520
0.066,0.030,-0.109,69.650,-41.370,77.490
0.048,-0.032,-0.072,66.640,-40.600,57.750
0.021,-0.069,-0.033,59.430,-49.140,40.740
-0.021,-0.099,0.010,43.400,-62.930,27.650
-0.056,-0.126,0.030,21.910,-79.520,19.880
-0.068,-0.152,0.006,8.260,-94.850,18.620
-0.077,-0.158,0.005,-4.340,-108.220,21.980
-0.111,-0.147,-0.078,-9.800,-110.320,26.670
-0.135,-0.124,0.000,-6.650,-93.100,28.560
-0.094,-0.120,0.081,-2.170,-44.170,28.140
-0.148,-0.124,-0.059,10.430,-28.840,29.470
-0.322,-0.185,-0.017,19.250,-24.080,28.070
-0.422,-0.185,-0.011,25.970,-22.120,24.920
-0.450,-0.206,0.000,32.060,-21.070,20.440
-0.463,-0.248,0.043,36.680,-19.670,17.500
-0.458,-0.281,0.048,41.510,-17.920,16.450
-0.452,-0.329,0.048,48.440,-17.360,16.380
-0.466,-0.348,0.036,52.150,-15.820,16.590
-0.497,-0.347,0.020,55.510,-15.120,16.450
-0.538,-0.337,0.014,57.050,-13.930,15.470
-0.579,-0.300,0.023,56.700,-11.620,14.070
-0.620,-0.271,0.061,53.550,-9.800,11.760
-0.645,-0.253,0.085,47.250,-9.940,9.100
-0.663,-0.266,0.096,38.990,-11.060,5.250
-0.673,-0.316,0.095,32.340,-14.350,1.190
-0.679,-0.416,0.102,27.370,-18.060,-3.430
-0.671,-0.474,0.119,25.480,-20.720,-4.970
-0.656,-0.521,0.142,25.550,-20.720,-4.130
-0.640,-0.565,0.176,27.020,-17.430,-1.820
-0.624,-0.593,0.183,28.840,-12.180,2.030
-0.630,-0.597,0.161,32.060,-4.200,6.230
-0.643,-0.590,0.118,36.260,5.320,10.080
-0.669,-0.578,0.094,42.140,13.370,11.900
-0.712,-0.560,0.090,44.940,18.130,11.690
-0.750,-0.529,0.102,44.520,19.110,8.330
-0.776,-0.495,0.112,42.350,16.310,3.710
-0.793,-0.495,0.128,39.690,10.780,-2.170
-0.795,-0.522,0.158,35.000,4.130,-8.260
-0.779,-0.573,0.178,29.330,-2.450,-12.670
-0.739,-0.626,0.214,23.240,-9.170,-14.140
-0.717,-0.651,0.233,17.500,-12.040,-12.880
-0.705,-0.651,0.239,11.900,-12.950,-10.990
-0.700,-0.632,0.222,5.390,-12.180,-8.610
-0.702,-0.608,0.186,2.870,-9.870,-7.140
-0.710,-0.594,0.151,1.470,-7.140,-6.860
-0.732,-0.603,0.097,-0.070,-4.200,-7.280
-0.748,-0.617,0.064,-0.070,-2.870,-7.560
-0.749,-0.628,0.061,1.540,-2.800,-7.770
-0.757,-0.633,0.087,3.920,-3.220,-8.470
-0.766,-0.653,0.125,7.280,-3.780,-9.450
-0.762,-0.672,0.162,8.960,-3.920,-9.030
-0.743,-0.689,0.184,10.920,-3.570,-7.490
-0.718,-0.703,0.212,11.900,-1.820,-4.480
-0.697,-0.689,0.219,12.390,1.050,-1.260
-0.690,-0.664,0.208,11.550,4.200,1.540
-0.689,-0.640,0.185,9.660,6.160,3.080
-0.704,-0.617,0.160,7.350,6.300,3.780
-0.720,-0.603,0.117,5.530,6.090,3.360
-0.725,-0.620,0.073,4.060,5.460,2.800
-0.719,-0.630,0.061,4.340,3.990,2.590
-0.723,-0.651,0.083,4.690,2.380,2.240
-0.732,-0.669,0.115,5.110,1.400,1.820
-0.735,-0.686,0.133,6.230,0.910,2.310
-0.731,-0.687,0.142,7.630,0.560,3.780
-0.724,-0.672,0.156,9.590,0.070,5.390
-0.726,-0.655,0.165,11.830,-0.420,5.670
-0.733,-0.651,0.184,10.920,0.140,5.390
-0.741,-0.610,0.192,8.610,1.190,5.250
-0.751,-0.572,0.179,5.670,2.240,3.920
-0.749,-0.566,0.159,1.470,2.240,1.470
-0.740,-0.575,0.140,-3.780,0.770,-2.030
-0.732,-0.599,0.133,-6.300,-1.400,-4.620
-0.734,-0.630,0.146,-9.520,-3.780,-6.510
-0.737,-0.655,0.164,-12.390,-5.040,-7.210
-0.725,-0.664,0.160,-13.230,-4.200,-6.370
-0.727,-0.668,0.150,-12.040,-2.100,-4.900
-0.730,-0.658,0.120,-11.200,0.280,-2.730
-0.730,-0.667,0.087,-11.690,1.050,-0.980
-0.721,-0.670,0.076,-10.500,-0.140,0.280
-0.722,-0.672,0.090,-7.420,-1.400,0.630
-0.738,-0.675,0.117,-4.200,-2.170,0.140
-0.755,-0.669,0.144,-1.610,-2.520,-0.350
-0.752,-0.658,0.156,-1.470,-1.750,-0.560
-0.743,-0.654,0.149,1.260,-0.770,-1.330
-0.744,-0.653,0.147,0.910,-0.210,-2.310
-0.745,-0.651,0.149,-0.560,-0.280,-3.360
-0.739,-0.651,0.152,-3.430,-1.330,-4.060
-0.722,-0.660,0.147,-7.000,-2.100,-4.340
-0.715,-0.662,0.147,-9.660,-1.750,-3.990
-0.713,-0.660,0.131,-11.060,-0.420,-3.360
-0.716,-0.653,0.114,-10.920,1.400,-3.010
-0.731,-0.653,0.097,-9.800,1.820,-2.940
-0.745,-0.657,0.078,-8.470,1.400,-3.220
-0.753,-0.672,0.065,-7.280,-1.680,-4.200
-0.752,-0.681,0.048,-6.300,-3.360,-4.340
-0.744,-0.690,0.037,-3.920,-4.200,-4.340
-0.740,-0.709,0.050,17.150,-4.900,-3.500
-0.735,-0.713,0.079,2.660,-4.830,-2.520
-0.733,-0.705,0.115,3.150,-4.830,-1.680
-0.729,-0.698,0.143,1.750,-4.620,-1.050
-0.726,-0.680,0.163,-0.630,-4.620,-0.910
-0.731,-0.667,0.158,-2.520,-3.990,-1.400
-0.731,-0.650,0.147,-4.410,-3.080,-1.750
-0.732,-0.638,0.131,-6.230,-1.750,-2.170
-0.738,-0.636,0.116,-7.210,-1.120,-2.590
-0.736,-0.650,0.101,-7.280,-1.050,-3.150
-0.733,-0.666,0.081,-6.860,-1.260,-3.570
-0.732,-0.691,0.079,-4.410,-1.540,-3.780
-0.736,-0.709,0.081,-1.540,-1.890,-3.430
-0.734,-0.730,0.094,2.940,-1.540,-2.240
-0.727,-0.724,0.109,6.090,0.490,-0.910
-0.718,-0.711,0.121,8.400,3.780,0.350
-0.714,-0.699,0.127,8.540,6.160,0.910
-0.714,-0.680,0.133,7.560,6.720,1.050
-0.719,-0.667,0.140,5.600,6.230,0.770
-0.709,-0.659,0.142,0.910,6.090,1.050
-0.708,-0.631,0.135,-1.960,6.370,1.260
-0.718,-0.618,0.110,-3.500,6.720,0.420
-0.728,-0.630,0.088,-4.130,6.440,-0.630
-0.736,-0.644,0.083,-3.780,5.180,-1.750
-0.740,-0.660,0.091,-2.240,2.800,-2.520
-0.738,-0.677,0.100,0.070,1.470,-3.640
-0.734,-0.687,0.102,2.730,1.330,-4.550
-0.724,-0.696,0.103,5.460,0.980,-4.410
-0.712,-0.699,0.114,6.720,0.980,-3.360
-0.706,-0.687,0.129,6.230,1.190,-1.820
-0.701,-0.679,0.147,4.340,1.190,-0.910
-0.704,-0.667,0.147,0.630,0.840,-0.770
-0.714,-0.650,0.140,-2.310,-0.420,-1.050
-0.728,-0.647,0.123,-4.270,-1.890,-1.960
-0.739,-0.649,0.105,-4.550,-2.450,-2.380
-0.744,-0.658,0.093,-4.200,-2.870,-2.800
-0.753,-0.666,0.086,-2.940,-2.870,-3.150
-0.752,-0.684,0.087,-1.470,-3.150,-3.150
-0.749,-0.700,0.094,0.350,-3.500,-2.940
-0.741,-0.707,0.105,2.380,-3.220,-1.610
-0.727,-0.701,0.119,4.270,-1.960,-0.980
-0.723,-0.690,0.126,6.300,-0.840,-0.700
-0.723,-0.682,0.126,8.260,-0.140,-0.700

0.174,-1.748,-0.624,-429.870,74.200,-221.130
0.312,-2.224,-0.733,-399.980,60.550,-213.780
0.381,-2.529,-0.806,-362.950,44.730,-192.430
0.460,-2.782,-0.976,-297.920,34.580,-157.570
0.513,-2.939,-1.107,-223.020,27.440,-113.190
0.518,-2.866,-1.218,-143.710,17.500,-72.030
0.533,-2.570,-1.217,-82.810,11.270,-38.290
0.542,-2.235,-1.253,-50.260,4.620,-14.000
0.505,-2.068,-1.281,-40.880,-6.580,5.390
0.438,-2.153,-1.381,-28.210,-19.040,15.820
0.367,-2.324,-1.374,-17.360,-33.670,26.950
0.335,-2.455,-1.351,-5.390,-46.550,42.350
0.337,-2.560,-1.266,1.050,-61.740,61.040
0.347,-2.670,-1.196,4.060,-71.190,81.620
0.351,-2.773,-1.140,6.510,-77.910,104.650
0.352,-2.836,-1.115,12.460,-82.180,128.100
0.338,-2.839,-1.112,22.190,-85.190,151.340
0.319,-2.788,-1.100,52.220,-87.220,180.250
0.292,-2.699,-1.109,52.360,-87.570,198.660
0.252,-2.592,-1.128,66.220,-88.970,214.270
0.205,-2.539,-1.142,80.640,-91.700,227.430
0.171,-2.496,-1.145,94.220,-96.180,238.980
0.165,-2.450,-1.128,106.050,-100.590,250.530
0.222,-2.377,-1.100,116.970,-102.830,262.500
0.289,-2.286,-1.071,128.870,-99.890,273.630
0.372,-2.172,-1.040,140.280,-93.730,284.550
0.443,-2.047,-1.000,150.990,-85.050,294.700
0.512,-1.926,-0.953,158.760,-73.640,307.650
0.559,-1.727,-0.926,163.730,-61.390,315.840
0.580,-1.597,-0.875,163.380,-50.960,322.350
0.590,-1.459,-0.805,155.190,-44.800,327.040
0.589,-1.323,-0.779,149.380,-39.550,329.770
0.566,-1.167,-0.730,151.060,-36.750,329.420
0.551,-1.027,-0.640,143.850,-38.290,327.180
0.553,-0.902,-0.685,138.110,-36.680,323.260
0.503,-0.736,-0.652,133.070,-39.340,316.960
0.457,-0.580,-0.665,126.700,-44.520,304.290
0.405,-0.402,-0.623,116.760,-55.440,292.110
0.335,-0.260,-0.546,111.160,-67.830,281.050
0.284,-0.192,-0.463,102.270,-76.300,269.150
0.251,-0.204,-0.349,93.380,-80.080,254.520
0.244,-0.249,-0.288,88.550,-77.980,238.140
0.262,-0.283,-0.238,88.130,-71.750,223.300
0.286,-0.272,-0.216,91.560,-62.230,211.960
0.282,-0.231,-0.202,99.820,-53.830,201.320
0.246,-0.064,-0.160,108.430,-47.180,189.980
0.216,0.102,-0.119,100.590,-41.860,186.340
0.191,0.214,-0.104,90.160,-37.870,172.830
0.144,0.267,-0.151,84.000,-35.770,151.480
0.104,0.305,-0.152,67.130,-36.820,126.840
0.081,0.279,-0.145,48.160,-43.610,98.000
0.053,0.207,-0.122,35.840,-57.680,68.950
0.041,0.201,-0.061,22.400,-72.030,46.620
0.033,0.182,-0.007,3.780,-92.260,28.350
0.006,0.142,0.020,-10.850,-110.320,13.020
-0.036,0.140,0.062,-22.330,-125.580,2.940
-0.071,0.125,-0.099,1.540,-136.640,-1.400
-0.139,0.104,0.082,9.380,-141.330,-3.220
-0.077,-0.041,0.256,3.500,-75.530,-8.610
0.070,-0.076,0.044,28.140,-28.000,0.560
-0.145,-0.250,0.032,47.180,-28.000,12.530
-0.301,-0.263,0.036,56.140,-27.370,17.710
-0.325,-0.195,0.027,57.260,-23.730,18.900
-0.329,-0.146,0.038,52.920,-22.750,19.040
-0.370,-0.156,0.069,46.760,-22.750,19.670
-0.392,-0.175,0.100,42.630,-21.350,20.160
-0.429,-0.200,0.114,41.090,-19.320,20.300
-0.476,-0.203,0.124,40.040,-18.760,19.110
-0.527,-0.176,0.155,38.920,-19.320,17.150
-0.570,-0.168,0.177,37.730,-21.630,13.580
-0.613,-0.173,0.188,36.960,-24.850,8.050
-0.651,-0.203,0.208,34.930,-28.000,3.010
-0.679,-0.249,0.236,32.130,-30.380,-1.330
-0.685,-0.306,0.253,28.910,-30.520,-4.970
-0.675,-0.353,0.223,27.720,-28.700,-7.070
-0.673,-0.393,0.205,27.300,-25.130,-7.350
-0.675,-0.400,0.198,28.490,-18.690,-5.600
-0.675,-0.389,0.193,31.360,-11.480,-4.550
-0.694,-0.397,0.199,35.000,-4.200,-2.450
-0.731,-0.397,0.213,38.220,4.690,-0.560
-0.762,-0.403,0.209,39.830,12.040,1.260
-0.768,-0.419,0.205,43.960,19.670,2.100
-0.767,-0.437,0.201,47.600,27.650,2.240
-0.775,-0.452,0.205,51.520,32.060,2.170
-0.784,-0.453,0.230,55.090,29.960,1.120
-0.785,-0.459,0.242,50.750,24.010,-1.260
-0.784,-0.453,0.260,46.200,15.820,-3.780
-0.776,-0.456,0.262,38.570,7.420,-5.810
-0.773,-0.460,0.253,30.310,-0.210,-7.490
-0.761,-0.465,0.232,22.540,-5.950,-8.400
-0.753,-0.475,0.199,15.750,-11.130,-9.170
-0.768,-0.488,0.191,11.130,-14.700,-10.360
-0.788,-0.499,0.192,7.840,-18.620,-12.110
-0.803,-0.517,0.201,5.950,-22.750,-14.490
-0.810,-0.534,0.228,4.200,-26.390,-16.940
-0.806,-0.541,0.245,3.570,-27.720,-17.920
-0.799,-0.547,0.248,6.020,-27.300,-18.270
-0.790,-0.558,0.263,8.190,-24.990,-17.710
-0.782,-0.559,0.266,9.520,-21.420,-16.310
-0.767,-0.557,0.258,10.920,-16.380,-14.140
-0.750,-0.553,0.261,11.200,-10.360,-11.130
-0.749,-0.528,0.257,9.660,-4.130,-8.540
-0.757,-0.520,0.237,7.770,1.540,-7.280
-0.762,-0.516,0.211,6.300,5.040,-6.720
-0.772,-0.526,0.190,6.370,6.510,-7.280
-0.798,-0.549,0.190,7.350,5.880,-8.680
-0.808,-0.571,0.196,9.520,5.600,-10.290
-0.805,-0.593,0.200,11.970,6.230,-11.270
-0.796,-0.609,0.210,15.680,6.720,-11.620
-0.799,-0.629,0.223,19.180,7.560,-11.200
-0.792,-0.640,0.238,23.170,8.610,-10.010
-0.778,-0.637,0.250,26.320,10.500,-6.440
-0.768,-0.620,0.262,25.340,12.880,-3.430
-0.769,-0.581,0.262,23.240,14.840,-0.700
-0.775,-0.551,0.240,20.230,15.680,0.630
-0.786,-0.532,0.222,15.470,14.630,0.560
-0.788,-0.534,0.209,9.100,11.760,-0.420
-0.799,-0.540,0.209,3.640,6.020,-1.610
-0.799,-0.560,0.205,-0.350,2.450,-3.080
-0.796,-0.593,0.201,-1.750,-1.120,-3.990
-0.792,-0.621,0.209,-1.120,-3.850,-4.480
-0.791,-0.639,0.222,0.630,-6.300,-3.850
-0.789,-0.640,0.242,1.960,-7.560,-3.290
-0.786,-0.626,0.261,2.100,-6.930,-2.450
-0.784,-0.594,0.263,1.120,-5.320,-1.750
-0.787,-0.573,0.244,-1.750,-5.110,-1.890
-0.788,-0.561,0.228,-5.320,-6.370,-2.520
-0.791,-0.546,0.230,-12.460,-8.260,-3.920
-0.790,-0.535,0.225,-15.540,-9.450,-5.180
-0.788,-0.537,0.214,-16.870,-10.360,-6.650
-0.776,-0.566,0.204,-16.940,-11.340,-7.490
-0.769,-0.593,0.194,-15.750,-11.690,-7.560
-0.760,-0.618,0.196,-13.230,-11.200,-6.650
-0.759,-0.648,0.213,-9.380,-9.240,-5.950
-0.759,-0.656,0.222,-5.180,-5.880,-5.110
-0.758,-0.647,0.231,-1.120,-0.420,-3.850
-0.765,-0.628,0.232,2.100,2.870,-2.310
-0.774,-0.609,0.229,3.640,4.970,-2.030
-0.778,-0.603,0.217,3.500,6.020,-2.170
-0.776,-0.599,0.215,1.540,5.950,-2.590
-0.780,-0.589,0.209,-1.050,4.830,-4.060
-0.785,-0.589,0.203,-2.240,2.870,-5.530
-0.785,-0.586,0.199,-3.080,0.770,-6.650
-0.779,-0.597,0.192,-3.710,-1.190,-7.210
-0.775,-0.616,0.187,-4.900,-2.170,-7.070
-0.763,-0.625,0.189,-5.250,-2.940,-5.950
-0.762,-0.633,0.195,-5.460,-3.570,-4.550
-0.757,-0.632,0.200,-5.600,-3.430,-3.780
-0.755,-0.628,0.212,-5.390,-3.080,-3.220
-0.751,-0.625,0.213,-5.530,-2.030,-2.310
-0.747,-0.621,0.207,-5.670,-1.120,-1.540
-0.749,-0.612,0.200,-5.530,-1.190,-0.840
-0.767,-0.608,0.200,-4.760,-2.100,-1.610
-0.792,-0.605,0.201,-4.830,-3.430,-3.080
-0.797,-0.606,0.195,-4.830,-5.740,-4.340
-0.784,-0.614,0.190,-4.340,-6.930,-4.970
-0.775,-0.631,0.198,-3.780,-7.140,-5.390
-0.779,-0.645,0.209,-3.990,-6.580,-4.760
-0.772,-0.647,0.204,-3.640,-5.180,-3.500
-0.757,-0.645,0.197,-3.570,-3.360,-2.170
-0.745,-0.642,0.196,-2.870,-1.190,-1.120
-0.752,-0.640,0.204,-1.890,-0.630,-0.490
-0.759,-0.637,0.213,-0.840,-0.490,-0.560
-0.764,-0.641,0.216,-0.070,0.140,-1.120
-0.764,-0.627,0.217,-0.280,1.470,-1.120
-0.772,-0.622,0.209,0.000,3.290,-1.610
-0.773,-0.625,0.196,1.400,4.830,-2.170
-0.773,-0.637,0.190,3.710,5.110,-2.940
-0.783,-0.644,0.198,5.390,4.270,-3.780
-0.785,-0.639,0.201,6.370,3.080,-4.200
-0.775,-0.630,0.193,8.260,3.150,-4.200
-0.760,-0.631,0.189,10.080,3.780,-3.990
-0.751,-0.630,0.204,10.010,3.920,-3.430
-0.746,-0.618,0.212,9.030,3.010,-2.590
-0.746,-0.616,0.219,6.650,1.470,-2.240
-0.749,-0.621,0.221,3.570,0.000,-2.240
-0.746,-0.615,0.214,1.820,0.000,-1.400
-0.740,-0.608,0.192,1.680,1.260,-0.420
-0.749,-0.611,0.181,2.660,1.680,-0.350
-0.767,-0.617,0.188,4.480,0.560,-1.050
-0.779,-0.618,0.206,4.830,-0.700,-2.100
-0.771,-0.613,0.212,4.480,-0.980,-2.450
-0.759,-0.603,0.216,5.320,-0.980,-2.240
-0.758,-0.606,0.216,5.530,-0.560,-2.100
-0.761,-0.616,0.216,5.320,-0.490,-1.820
-0.757,-0.621,0.226,3.710,-1.540,-1.050
-0.749,-0.614,0.238,1.260,-2.800,-0.560
-0.745,-0.605,0.246,-1.820,-3.780,-0.070
-0.747,-0.600,0.233,-3.430,-3.920,-0.280
-0.750,-0.609,0.215,-3.920,-4.270,-0.630
-0.752,-0.618,0.203,-3.220,-4.620,-0.980
-0.757,-0.619,0.203,-1.330,-4.970,-1.680
-0.762,-0.616,0.213,0.210,-4.830,-2.310
-0.761,-0.621,0.214,1.890,-4.270,-2.870
-0.756,-0.623,0.222,2.870,-3.850,-2.730
-0.746,-0.625,0.228,3.430,-2.730,-2.310
-0.748,-0.620,0.231,3.360,-2.520,-1.750
-0.746,-0.617,0.233,2.310,-2.170,-0.980
-0.742,-0.604,0.238,1.260,-1.820,0.000

0.075,-1.809,-0.571,-231.560,29.120,-158.480
0.156,-2.024,-0.605,-238.910,12.950,-150.710
0.209,-2.331,-0.640,-236.950,-2.520,-129.640
0.251,-2.581,-0.677,-223.090,-17.290,-106.470
0.278,-2.783,-0.728,-197.960,-29.050,-80.150
0.310,-2.898,-0.785,-167.370,-36.680,-46.130
0.293,-2.901,-0.854,-138.740,-35.420,-11.760
0.265,-2.814,-0.975,-112.350,-29.610,18.620
0.206,-2.603,-1.110,-90.930,-25.340,47.180
0.111,-2.528,-1.222,-81.060,-30.100,58.940
0.013,-2.581,-1.281,-73.710,-45.500,66.640
-0.062,-2.714,-1.282,-64.750,-76.650,75.040
-0.066,-2.876,-1.217,-50.960,-100.310,87.430
0.004,-3.000,-1.150,-30.660,-115.360,104.720
0.113,-3.088,-1.096,12.880,-116.410,133.910
0.193,-3.107,-1.096,32.060,-119.910,158.620
0.176,-3.048,-1.103,54.670,-124.950,182.980
0.178,-2.914,-1.096,71.820,-124.530,206.570
0.175,-2.776,-1.104,87.500,-119.420,226.940
0.149,-2.637,-1.110,102.970,-114.030,243.670
0.106,-2.477,-1.095,116.970,-106.610,256.760
0.090,-2.313,-1.073,128.660,-100.590,267.330
0.094,-2.163,-1.053,136.430,-95.060,275.940
0.117,-2.044,-1.031,144.130,-90.790,282.590
0.169,-1.932,-1.003,151.130,-86.520,288.960
0.248,-1.746,-0.955,157.010,-81.270,292.110
0.332,-1.615,-0.929,163.870,-73.430,293.650
0.403,-1.488,-0.859,170.030,-66.080,294.560
0.453,-1.366,-0.820,169.610,-57.260,296.730
0.482,-1.232,-0.813,165.130,-44.450,298.480
0.456,-1.102,-0.809,158.900,-37.310,297.570
0.435,-1.008,-0.773,149.240,-28.490,294.210
0.408,-0.895,-0.634,136.290,-24.710,289.730
0.395,-0.653,-0.610,110.530,-19.110,280.840
0.364,-0.594,-0.564,99.960,-17.570,273.000
0.325,-0.464,-0.524,91.210,-19.390,263.130
0.284,-0.366,-0.479,81.060,-23.310,251.720
0.233,-0.271,-0.431,74.410,-28.980,239.260
0.202,-0.201,-0.366,71.400,-32.480,225.610
0.195,-0.148,-0.327,73.500,-28.210,211.820
0.207,-0.122,-0.318,78.820,-19.600,197.820
0.208,-0.099,-0.310,84.700,-11.690,183.330
0.219,-0.088,-0.305,89.040,-5.460,170.310
0.241,-0.079,-0.265,91.140,-2.240,159.390
0.275,-0.065,-0.222,89.320,-3.080,147.910
0.328,-0.032,-0.173,77.700,-4.200,145.110
0.361,0.010,-0.153,63.630,-5.320,142.240
0.378,0.075,-0.133,59.640,-9.660,133.070
0.357,0.150,-0.090,42.070,-15.050,119.280
0.320,0.199,-0.076,24.570,-21.280,94.990
0.253,0.216,-0.086,10.920,-30.800,70.420
0.130,0.190,-0.096,-1.190,-49.420,47.670
0.037,0.136,-0.102,-14.980,-70.140,29.750
-0.053,0.093,-0.086,-20.930,-91.420,12.460
-0.102,0.047,-0.081,-23.660,-107.520,-5.040
-0.120,-0.037,-0.149,10.080,-100.030,-11.550
0.075,-0.130,0.183,25.830,-11.550,-14.770
0.112,-0.211,-0.203,48.370,-17.010,6.440
-0.071,-0.322,-0.042,60.760,-14.770,20.860
-0.104,-0.231,0.009,67.970,-12.950,31.150
-0.186,-0.126,0.048,64.820,-14.210,36.890
-0.258,-0.069,0.070,58.310,-17.640,39.200
-0.325,-0.013,0.080,50.540,-22.400,39.900
-0.390,0.004,0.072,44.100,-27.300,37.380
-0.465,-0.012,0.060,39.130,-33.320,32.970
-0.520,-0.090,0.056,35.770,-38.990,26.250
-0.553,-0.181,0.061,39.550,-43.260,21.700
-0.560,-0.243,0.075,45.920,-47.180,18.130
-0.566,-0.285,0.089,50.610,-50.960,16.100
-0.575,-0.321,0.244,50.120,-54.180,15.680
-0.575,-0.347,0.139,45.990,-54.250,16.380
-0.567,-0.346,0.160,39.900,-53.900,18.480
-0.575,-0.310,0.174,30.730,-52.220,21.280
-0.583,-0.265,0.191,21.770,-50.400,22.680
-0.610,-0.234,0.204,14.070,-49.840,21.210
-0.669,-0.229,0.210,7.700,-48.930,16.170
-0.719,-0.271,0.206,4.970,-47.460,12.180
-0.743,-0.309,0.201,5.880,-45.150,8.890
-0.746,-0.353,0.200,10.640,-42.350,6.370
-0.753,-0.392,0.208,18.620,-39.270,4.060
-0.766,-0.428,0.231,26.950,-35.420,2.240
-0.756,-0.447,0.258,33.530,-33.040,0.910
-0.743,-0.444,0.289,37.030,-31.220,-0.210
-0.725,-0.437,0.290,36.400,-29.050,-0.840
-0.707,-0.436,0.268,34.160,-25.410,-1.470
-0.702,-0.426,0.244,32.060,-21.210,-2.100
-0.718,-0.410,0.228,29.890,-17.710,-3.780
-0.747,-0.396,0.216,27.510,-14.280,-6.650
-0.793,-0.391,0.217,25.410,-11.340,-10.570
-0.820,-0.415,0.222,25.550,-11.480,-15.330
-0.829,-0.428,0.230,23.030,-14.070,-18.690
-0.833,-0.447,0.231,22.400,-17.710,-22.540
-0.831,-0.469,0.250,22.470,-20.370,-23.940
-0.821,-0.474,0.276,21.070,-21.070,-24.220
-0.813,-0.490,0.295,19.880,-20.510,-23.940
-0.798,-0.527,0.291,19.250,-0.630,-22.960
-0.787,-0.558,0.283,18.690,-14.210,-21.350
-0.777,-0.566,0.263,16.800,-8.680,-18.270
-0.770,-0.555,0.226,16.100,-3.080,-14.980
-0.787,-0.557,0.200,15.610,1.330,-12.600
-0.815,-0.551,0.195,14.770,3.780,-12.250
-0.831,-0.543,0.200,10.640,4.550,-12.600
-0.839,-0.549,0.196,9.590,4.270,-13.650
-0.851,-0.568,0.196,9.450,2.800,-15.050
-0.856,-0.586,0.218,9.520,1.050,-15.540
-0.851,-0.591,0.233,10.780,0.700,-15.260
-0.844,-0.591,0.254,12.320,-0.210,-14.770
-0.832,-0.610,0.286,13.160,-2.170,-14.350
-0.814,-0.628,0.312,11.410,-2.660,-12.250
-0.796,-0.628,0.309,9.590,-1.750,-10.220
-0.792,-0.622,0.288,6.090,-0.070,-7.980
-0.792,-0.604,0.233,2.450,2.660,-6.370
-0.796,-0.601,0.192,-0.210,3.780,-5.390
-0.811,-0.599,0.171,-2.170,3.150,-5.180
-0.821,-0.597,0.181,-3.570,1.540,-5.670
-0.825,-0.598,0.200,-4.550,0.070,-7.000
-0.825,-0.615,0.214,-3.850,-0.630,-8.610
-0.827,-0.635,0.218,-1.470,-0.910,-10.150
-0.828,-0.648,0.223,1.400,-0.210,-10.570
-0.827,-0.651,0.230,3.570,1.190,-10.850
-0.825,-0.652,0.242,4.690,1.820,-10.570
-0.813,-0.650,0.256,4.200,1.890,-10.220
-0.795,-0.644,0.268,0.630,2.030,-9.380
-0.779,-0.632,0.267,-4.410,2.730,-8.260
-0.768,-0.626,0.228,-8.260,4.270,-7.350
-0.758,-0.638,0.196,-10.360,5.180,-6.510
-0.762,-0.636,0.165,-10.990,6.090,-5.390
-0.767,-0.616,0.159,-11.200,6.650,-4.620
-0.770,-0.609,0.158,-10.710,6.300,-5.040
-0.784,-0.634,0.153,-8.820,5.600,-6.230
-0.785,-0.651,0.155,-5.740,5.180,-6.650
-0.775,-0.658,0.162,-2.240,6.090,-6.510
-0.772,-0.656,0.173,1.260,7.910,-6.020
-0.775,-0.648,0.176,4.130,9.380,-5.740
-0.771,-0.641,0.183,5.880,8.890,-6.020
-0.762,-0.641,0.200,4.620,7.910,-5.950
-0.747,-0.626,0.218,0.210,7.280,-4.620
-0.748,-0.598,0.210,-4.270,7.210,-4.060
-0.752,-0.595,0.169,-9.870,7.420,-3.990
-0.747,-0.608,0.115,-11.900,6.720,-3.640
-0.755,-0.619,0.090,-12.320,4.410,-3.290
-0.773,-0.626,0.109,-12.810,-0.560,-3.360
-0.781,-0.625,0.131,-13.300,-3.780,-3.430
-0.774,-0.634,0.143,-12.320,-5.530,-4.130
-0.766,-0.637,0.150,-8.400,-6.090,-3.850
-0.761,-0.636,0.148,-4.480,-5.740,-3.290
-0.761,-0.646,0.152,-1.540,-5.670,-3.150
-0.760,-0.653,0.171,-0.840,-6.580,-3.150
-0.761,-0.657,0.189,-2.380,-7.140,-2.520
-0.758,-0.637,0.204,-6.090,-7.280,-1.960
-0.755,-0.619,0.200,-11.340,-7.490,-1.610
-0.754,-0.614,0.191,-14.280,-7.910,-1.890
-0.764,-0.627,0.166,-15.820,-8.680,-2.170
-0.768,-0.642,0.126,-17.570,-7.700,-1.680
-0.767,-0.637,0.097,-17.920,-6.090,-0.700
-0.763,-0.645,0.086,-17.220,-5.390,0.070
-0.767,-0.647,0.105,-14.700,-5.810,-0.070
-0.778,-0.657,0.138,-10.010,-6.440,-0.840
-0.773,-0.666,0.161,-5.250,-6.440,-1.050
-0.767,-0.683,0.182,-0.350,-4.690,-1.260
-0.761,-0.686,0.189,4.200,-2.170,-0.770
-0.760,-0.672,0.196,7.490,0.630,0.280
-0.758,-0.646,0.194,7.770,2.520,0.980
-0.757,-0.624,0.191,6.020,3.710,1.330
-0.755,-0.597,0.195,3.360,3.780,0.840
-0.760,-0.583,0.181,-0.140,3.570,-0.700
-0.762,-0.583,0.165,-1.610,3.290,-1.890
-0.761,-0.599,0.145,-1.120,3.360,-2.940
-0.756,-0.616,0.124,1.540,3.360,-3.430
-0.760,-0.635,0.128,5.110,2.870,-3.640
-0.765,-0.646,0.145,8.260,2.380,-3.290
-0.759,-0.641,0.163,10.710,2.100,-2.730
-0.755,-0.639,0.181,13.300,1.750,-2.660
-0.752,-0.629,0.198,14.770,1.960,-2.310
-0.748,-0.612,0.212,13.440,3.010,-1.750
-0.740,-0.589,0.212,10.430,4.270,-1.400
-0.732,-0.579,0.211,6.370,4.830,-1.190
-0.732,-0.576,0.206,3.080,4.620,-1.750
-0.737,-0.572,0.199,0.420,3.640,-2.590
-0.745,-0.580,0.176,-1.330,2.240,-3.780
-0.755,-0.590,0.147,-1.400,1.050,-4.760
-0.760,-0.610,0.129,0.070,-0.280,-4.830
-0.763,-0.630,0.128,2.800,-2.100,-4.830
-0.759,-0.631,0.152,5.040,-3.430,-4.270
-0.756,-0.634,0.183,5.040,-4.060,-3.990
-0.746,-0.636,0.207,4.340,-4.270,-3.570
-0.739,-0.633,0.221,3.080,-3.990,-2.800
-0.735,-0.628,0.221,1.190,-3.430,-2.170
-0.739,-0.621,0.222,-1.330,-3.290,-1.610
-0.742,-0.613,0.223,-3.780,-3.010,-1.260
-0.746,-0.611,0.220,-7.280,-2.450,-0.980
-0.757,-0.603,0.206,-7.840,-1.540,-1.680
-0.771,-0.609,0.189,-7.000,-0.980,-2.730
-0.783,-0.619,0.154,-4.620,0.000,-3.710
-0.787,-0.632,0.140,-1.750,0.350,-4.620
-0.790,-0.638,0.142,1.260,0.210,-4.760
-0.783,-0.646,0.161,3.640,0.210,-4.900
-0.774,-0.644,0.183,4.970,0.910,-4.690
-0.763,-0.630,0.203,4.270,1.400,-4.060

0.187,-1.717,-0.645,-243.810,41.020,-205.520
0.243,-1.957,-0.703,-246.400,21.560,-203.280
0.275,-2.127,-0.629,-243.950,-15.050,-191.450
0.275,-2.196,-0.551,-237.790,-13.230,-167.650
0.247,-2.199,-0.462,-230.230,-20.510,-142.170
0.243,-2.210,-0.456,-223.510,-24.640,-121.730
0.286,-2.230,-0.529,-213.150,-27.020,-95.340
0.336,-2.242,-0.654,-204.680,-27.230,-73.500
0.366,-2.281,-0.939,-194.040,-26.740,-50.330
0.332,-2.352,-1.149,-179.130,-28.980,-30.240
0.251,-2.441,-1.344,-151.760,-37.520,-14.910
0.178,-2.618,-1.425,-108.290,-52.570,3.780
0.128,-2.700,-1.413,-75.390,-69.720,21.350
0.132,-2.787,-1.373,-44.660,-85.120,41.720
0.171,-2.870,-1.293,-18.410,-96.740,63.350
0.240,-2.911,-1.171,3.430,-100.310,86.170
0.286,-2.909,-1.099,22.750,-94.080,110.180
0.248,-2.861,-1.131,39.340,-98.140,134.330
0.197,-2.772,-1.161,53.760,-102.340,163.520
0.197,-2.592,-1.167,63.560,-103.040,182.210
0.203,-2.483,-1.201,75.320,-102.690,198.170
0.191,-2.379,-1.209,87.990,-104.370,212.100
0.173,-2.283,-1.207,101.850,-107.800,224.000
0.163,-2.196,-1.188,117.110,-112.140,233.310
0.178,-2.107,-1.129,132.930,-117.530,241.570
0.220,-2.004,-1.074,147.350,-119.280,249.270
0.278,-1.898,-1.019,161.700,-118.300,256.200
0.331,-1.786,-0.969,175.280,-113.960,262.430
0.362,-1.690,-0.914,186.900,-106.260,269.290
0.382,-1.548,-0.856,196.980,-96.250,274.050
0.396,-1.442,-0.820,198.520,-85.050,278.740
0.383,-1.326,-0.777,197.260,-74.340,282.240
0.362,-1.202,-0.743,193.830,-64.750,283.640
0.347,-1.069,-0.712,189.420,-52.150,283.360
0.325,-0.925,-0.705,188.440,-42.420,281.820
0.322,-0.798,-0.667,168.630,-37.660,277.900
0.308,-0.700,-0.650,156.520,-37.310,271.320
0.293,-0.627,-0.592,146.370,-39.970,263.270
0.283,-0.600,-0.526,139.930,-44.730,251.510
0.275,-0.616,-0.422,129.570,-49.490,245.140
0.272,-0.622,-0.381,126.490,-51.590,243.320
0.273,-0.613,-0.338,126.630,-50.260,243.110
0.274,-0.578,-0.298,127.610,-46.200,243.670
0.282,-0.505,-0.291,128.170,-37.870,242.130
0.279,-0.409,-0.296,126.770,-24.290,237.720
0.230,-0.277,-0.304,124.040,-14.700,231.700
0.183,-0.160,-0.345,118.160,-5.390,224.770
0.133,-0.070,-0.370,112.000,-2.100,214.550
0.072,-0.021,-0.367,103.670,-3.500,202.650
0.037,0.009,-0.336,91.070,-6.650,196.490
0.032,0.025,-0.296,71.260,-7.700,184.310
0.034,0.006,-0.239,61.040,-10.360,169.820
0.041,0.008,-0.169,52.990,-15.610,151.760
0.047,0.051,-0.097,31.920,-21.140,133.980
0.041,0.080,-0.078,15.540,-29.260,110.740
0.001,0.105,-0.055,1.120,-42.350,89.110
-0.058,0.129,-0.030,-17.640,-60.620,70.700
-0.111,0.146,-0.062,-32.690,-81.410,53.340
-0.152,0.130,-0.085,-39.900,-93.380,37.170
-0.182,0.108,-0.159,-40.250,-101.850,23.870
-0.228,0.075,-0.113,-9.170,-104.790,13.930
-0.221,-0.122,0.029,-7.070,-64.750,-1.680
-0.066,-0.081,0.018,16.170,-27.300,-3.500
-0.223,-0.222,-0.025,34.790,-32.830,1.330
-0.323,-0.267,0.044,45.990,-35.910,3.290
-0.318,-0.237,0.093,50.260,-35.910,6.020
-0.320,-0.203,0.146,48.790,-36.260,7.980
-0.354,-0.176,0.165,44.030,-38.430,9.380
-0.377,-0.155,0.148,38.500,-38.570,10.710
-0.399,-0.145,0.121,34.440,-38.990,10.990
-0.444,-0.129,0.097,31.500,-39.760,9.450
-0.486,-0.125,0.088,29.470,-40.530,6.580
-0.509,-0.132,0.089,29.680,-41.230,3.290
-0.535,-0.156,0.097,32.060,-42.210,-0.560
-0.547,-0.203,0.135,33.460,-43.400,-3.990
-0.557,-0.258,0.214,33.320,-43.750,-5.530
-0.566,-0.308,0.266,32.970,-42.980,-5.810
-0.573,-0.345,0.297,33.040,-40.670,-4.200
-0.590,-0.370,0.320,33.390,-38.220,-2.590
-0.609,-0.373,0.336,31.360,-35.490,0.490
-0.628,-0.358,0.342,29.680,-31.990,2.940
-0.651,-0.338,0.329,26.740,-27.230,5.320
-0.683,-0.321,0.308,24.150,-23.240,6.580
-0.718,-0.325,0.274,21.770,-18.550,5.880
-0.748,-0.341,0.243,19.950,-15.050,3.570
-0.759,-0.362,0.229,18.550,-12.810,1.610
-0.759,-0.383,0.232,17.150,-11.760,-0.840
-0.754,-0.433,0.256,14.420,-11.130,-3.640
-0.743,-0.464,0.276,12.110,-10.780,-3.920
-0.727,-0.475,0.307,10.570,-9.520,-3.290
-0.709,-0.462,0.320,10.640,-5.320,-2.730
-0.716,-0.443,0.313,11.620,-1.260,-3.220
-0.754,-0.420,0.301,11.690,2.310,-4.690
-0.798,-0.398,0.266,11.060,4.900,-7.490
-0.831,-0.406,0.239,10.080,6.090,-14.070
-0.845,-0.432,0.225,9.520,4.900,-19.670
-0.847,-0.462,0.220,10.080,2.310,-24.710
-0.838,-0.498,0.218,10.500,-0.490,-28.700
-0.817,-0.534,0.247,7.000,-4.060,-30.170
-0.797,-0.582,0.262,3.080,-5.390,-29.820
-0.776,-0.607,0.279,0.840,-4.480,-27.230
-0.756,-0.613,0.289,-1.400,-0.490,-23.170
-0.764,-0.606,0.279,-0.070,5.460,-18.760
-0.780,-0.591,0.266,1.890,10.920,-16.730
-0.797,-0.578,0.249,4.830,14.490,-16.310
-0.810,-0.558,0.229,7.840,17.080,-16.590
-0.827,-0.549,0.210,11.550,18.690,-17.780
-0.844,-0.554,0.187,15.890,18.970,-19.810
-0.853,-0.565,0.199,19.950,18.620,-21.910
-0.848,-0.588,0.228,22.470,17.570,-22.820
-0.838,-0.610,0.265,21.210,16.730,-22.050
-0.823,-0.626,0.278,19.530,16.170,-20.510
-0.813,-0.647,0.290,16.800,15.610,-18.130
-0.800,-0.654,0.286,11.620,15.750,-14.140
-0.786,-0.652,0.262,8.470,16.310,-11.060
-0.776,-0.649,0.232,5.880,16.520,-8.820
-0.778,-0.647,0.212,3.360,15.890,-7.420
-0.790,-0.637,0.198,0.910,14.770,-6.790
-0.802,-0.625,0.181,-0.910,12.600,-6.580
-0.801,-0.620,0.167,-2.310,11.060,-7.070
-0.797,-0.629,0.162,-2.240,9.450,-7.840
-0.799,-0.648,0.166,-0.630,7.420,-8.610
-0.800,-0.661,0.180,0.700,5.670,-9.030
-0.789,-0.657,0.203,0.770,4.690,-8.190
-0.769,-0.660,0.224,-0.700,4.410,-7.350
-0.756,-0.659,0.233,-1.890,4.830,-6.440
-0.753,-0.655,0.231,-3.850,5.670,-5.880
-0.757,-0.645,0.198,-5.670,7.350,-5.040
-0.764,-0.636,0.156,-7.630,8.260,-3.990
-0.771,-0.637,0.130,-8.750,8.610,-3.850
-0.782,-0.636,0.130,-8.680,7.840,-4.410
-0.791,-0.637,0.134,-8.190,6.930,-5.740
-0.792,-0.645,0.138,-6.230,5.740,-6.650
-0.786,-0.657,0.149,-4.690,5.250,-7.000
-0.775,-0.660,0.163,-3.290,5.600,-6.860
-0.766,-0.667,0.166,-1.120,7.350,-6.650
-0.758,-0.664,0.183,0.420,8.470,-5.880
-0.752,-0.652,0.186,1.050,9.730,-4.760
-0.748,-0.630,0.166,0.560,10.920,-3.570
-0.753,-0.611,0.143,0.910,11.270,-3.290
-0.766,-0.610,0.125,-17.570,10.710,-3.920
-0.777,-0.595,0.110,-1.400,9.170,-4.760
-0.777,-0.590,0.101,-2.870,6.860,-5.180
-0.767,-0.597,0.096,-4.200,3.920,-5.320
-0.763,-0.621,0.104,-4.620,-0.840,-5.530
-0.760,-0.655,0.127,-4.900,-4.060,-5.460
-0.751,-0.676,0.152,-7.280,-5.740,-3.990
-0.743,-0.674,0.166,-7.070,-5.110,-0.840
-0.739,-0.656,0.173,-5.740,-3.290,1.540
-0.741,-0.643,0.176,-5.740,-1.610,2.870
-0.752,-0.628,0.177,-6.020,-0.770,3.500
-0.763,-0.613,0.163,-6.930,-1.890,3.290
-0.773,-0.610,0.152,-8.190,-3.430,2.380
-0.778,-0.616,0.141,-8.680,-5.110,1.190
-0.784,-0.620,0.129,-8.470,-6.230,0.420
-0.782,-0.627,0.114,-7.490,-7.490,0.350
-0.778,-0.639,0.098,-5.950,-7.770,0.770
-0.775,-0.653,0.105,-4.480,-8.050,1.190
-0.773,-0.653,0.136,-3.780,-8.260,1.890
-0.768,-0.638,0.166,-3.570,-7.560,2.660
-0.759,-0.620,0.173,-3.150,-6.440,3.220
-0.758,-0.605,0.172,-2.660,-5.180,3.360
-0.762,-0.597,0.166,-1.750,-4.130,3.080
-0.770,-0.594,0.163,-0.840,-3.080,1.820
-0.775,-0.592,0.160,-1.680,-2.170,0.980
-0.782,-0.586,0.151,-1.680,-1.540,-0.350
-0.782,-0.589,0.155,-0.350,-1.960,-1.820
-0.788,-0.604,0.149,0.420,-2.590,-3.500
-0.793,-0.627,0.152,1.680,-3.290,-4.340
-0.788,-0.642,0.151,2.170,-2.100,-4.060
-0.775,-0.652,0.134,3.360,0.910,-2.940
-0.764,-0.658,0.121,4.340,3.710,-0.910
-0.767,-0.651,0.129,6.230,4.270,0.910
-0.774,-0.630,0.149,7.770,4.410,1.680
-0.774,-0.616,0.174,7.770,4.550,1.400
-0.772,-0.608,0.183,7.350,4.970,0.840
-0.763,-0.609,0.188,6.930,5.740,0.140
-0.764,-0.600,0.186,6.510,6.510,-0.420
-0.770,-0.603,0.175,6.720,6.510,-1.190
-0.776,-0.611,0.170,6.720,5.880,-1.750
-0.777,-0.605,0.162,7.070,5.250,-1.820
-0.780,-0.599,0.139,7.140,5.390,-2.030
-0.776,-0.598,0.130,7.070,4.550,-1.960
-0.776,-0.603,0.137,7.140,3.010,-2.520
-0.771,-0.613,0.165,5.530,0.910,-3.010
-0.762,-0.614,0.166,2.730,0.000,-2.870
-0.754,-0.613,0.152,1.260,-0.070,-2.030
-0.755,-0.619,0.142,1.260,-0.490,-1.190
-0.763,-0.617,0.150,1.260,-1.190,-0.490
-0.763,-0.611,0.164,1.680,-1.190,0.070
-0.772,-0.611,0.177,1.680,-1.260,-0.280
-0.773,-0.616,0.182,1.750,-1.330,-1.050
-0.774,-0.621,0.179,2.240,-1.260,-1.470
-0.771,-0.621,0.170,2.940,-1.050,-1.960
-0.766,-0.619,0.168,3.640,-0.490,-2.170
-0.761,-0.613,0.159,4.130,-0.490,-2.450
-0.760,-0.612,0.161,2.940,-1.050,-2.380
-0.755,-0.617,0.171,0.280,-1.750,-2.030
-0.625,-0.604,0.163,-3.430,-0.910,-0.840

0.246,-1.770,-0.362,-165.970,23.450,-157.780
0.237,-1.784,-0.482,-149.590,23.240,-146.160
0.236,-1.805,-0.602,-131.040,15.330,-133.420
0.247,-1.831,-0.648,-113.190,7.700,-119.840
0.257,-1.866,-0.648,-102.060,0.700,-106.400
0.268,-1.879,-0.654,-96.390,-4.060,-92.960
0.280,-1.891,-0.643,-98.070,-7.420,-77.420
0.281,-1.914,-0.654,-88.410,-8.960,-66.360
0.291,-1.946,-0.619,-91.280,-10.430,-54.180
0.300,-1.972,-0.649,-95.620,-7.420,-41.230
0.285,-2.006,-0.675,-100.870,-6.160,-28.210
0.259,-2.033,-0.701,-107.800,-7.490,-16.310
0.234,-2.053,-0.726,-112.350,-12.670,-5.460
0.207,-2.106,-0.735,-113.960,-21.560,8.330
0.177,-2.140,-0.753,-112.350,-30.170,19.320
0.148,-2.148,-0.745,-105.490,-38.780,30.100
0.112,-2.135,-0.730,-95.830,-46.620,41.230
0.117,-2.110,-0.737,-88.340,-52.430,54.390
0.133,-2.094,-0.771,-83.580,-54.110,68.040
0.148,-2.103,-0.838,-78.330,-55.650,81.270
0.154,-2.167,-0.924,-73.220,-60.060,96.040
0.134,-2.267,-0.979,-55.370,-69.090,105.000
0.123,-2.344,-1.002,-35.490,-80.150,114.520
0.115,-2.370,-0.971,-13.160,-89.530,126.980
0.113,-2.350,-0.921,11.060,-94.990,139.790
0.128,-2.319,-0.898,34.650,-96.740,154.420
0.137,-2.274,-0.916,56.980,-96.320,169.120
0.136,-2.225,-0.928,81.340,-94.990,181.160
0.127,-2.173,-0.911,109.130,-93.450,190.610
0.137,-2.088,-0.803,108.500,-93.170,205.380
0.139,-1.990,-0.791,112.560,-90.930,215.810
0.110,-1.922,-0.773,115.850,-87.430,225.610
0.084,-1.853,-0.770,116.620,-83.300,234.080
0.084,-1.799,-0.726,104.090,-81.130,242.830
0.106,-1.733,-0.739,94.990,-78.120,250.530
0.128,-1.667,-0.776,89.810,-73.850,257.320
0.141,-1.595,-0.838,93.870,-68.880,261.870
0.152,-1.518,-0.779,88.200,-69.510,266.490
0.163,-1.440,-0.808,89.600,-69.370,270.130
0.171,-1.347,-0.749,94.430,-70.700,272.160
0.198,-1.257,-0.711,96.390,-72.730,274.960
0.203,-1.135,-0.659,98.980,-73.990,275.800
0.219,-1.037,-0.642,95.060,-71.680,276.710
0.229,-0.912,-0.651,90.020,-68.950,276.010
0.219,-0.761,-0.630,83.720,-69.440,271.600
0.198,-0.643,-0.591,75.040,-73.990,263.130
0.171,-0.531,-0.502,67.410,-80.780,252.980
0.133,-0.431,-0.430,59.780,-83.720,243.040
0.097,-0.339,-0.383,53.760,-83.370,232.470
0.065,-0.271,-0.355,50.680,-80.710,219.450
0.062,-0.236,-0.314,49.770,-76.300,206.220
0.069,-0.198,-0.261,71.120,-72.800,193.410
0.061,-0.198,-0.202,61.880,-69.370,176.470
0.056,-0.211,-0.160,70.210,-62.930,165.200
0.049,-0.212,-0.139,79.450,-55.090,154.770
0.038,-0.198,-0.121,85.680,-47.950,145.320
0.028,-0.158,-0.123,87.430,-42.210,139.650
0.021,-0.089,-0.156,87.640,-35.280,129.290
0.010,-0.021,-0.202,84.490,-31.010,117.740
0.011,0.041,-0.198,77.630,-33.600,103.320
0.017,0.101,-0.175,67.060,-40.110,88.200
0.013,0.141,-0.135,55.580,-49.700,73.290
-0.011,0.149,-0.091,44.450,-59.780,57.050
-0.040,0.133,-0.061,34.930,-70.840,37.590
-0.086,0.066,-0.041,25.760,-84.280,25.130
-0.125,-0.004,-0.049,29.750,-96.460,15.400
-0.165,-0.069,0.028,30.310,-110.040,8.190
-0.195,-0.107,0.066,39.270,-112.840,4.760
-0.182,-0.151,0.141,39.830,-66.850,3.710
-0.098,-0.135,-0.024,53.970,-43.890,7.980
-0.237,-0.199,-0.031,67.340,-34.440,14.840
-0.317,-0.193,-0.054,76.230,-27.860,18.620
-0.358,-0.157,-0.028,77.280,-23.800,18.200
-0.404,-0.119,0.031,70.000,-23.940,15.960
-0.429,-0.102,0.101,60.270,-24.990,13.300
-0.429,-0.098,0.175,50.820,-26.950,11.130
-0.438,-0.145,0.233,41.650,-29.330,8.470
-0.457,-0.203,0.258,33.670,-30.800,7.280
-0.463,-0.222,0.252,29.050,-31.990,6.720
-0.516,-0.264,0.246,26.040,-31.570,6.650
-0.543,-0.275,0.223,27.230,-28.840,6.860
-0.582,-0.282,0.183,32.270,-26.180,6.580
-0.623,-0.303,0.143,38.500,-21.770,5.390
-0.645,-0.311,0.112,46.690,-18.550,5.180
-0.666,-0.316,0.103,51.170,-16.800,4.900
-0.683,-0.341,0.137,51.450,-15.820,3.430
-0.691,-0.358,0.190,49.490,-15.680,1.400
-0.680,-0.369,0.237,46.760,-15.190,-0.210
-0.679,-0.397,0.297,43.260,-14.490,-1.820
-0.682,-0.410,0.332,38.850,-11.760,-1.680
-0.686,-0.404,0.355,34.580,-7.840,-0.490
-0.695,-0.394,0.355,31.150,-3.710,-0.490
-0.723,-0.386,0.344,28.490,0.000,-2.800
-0.753,-0.393,0.324,26.390,3.850,-6.160
-0.778,-0.405,0.296,25.060,7.980,-10.010
-0.790,-0.437,0.252,25.550,10.220,-14.210
-0.793,-0.470,0.223,26.040,11.060,-17.500
-0.789,-0.490,0.186,30.170,10.710,-20.090
-0.789,-0.523,0.191,31.990,9.030,-22.400
-0.781,-0.549,0.212,30.170,5.390,-23.450
-0.771,-0.575,0.232,27.510,1.750,-23.520
-0.757,-0.588,0.259,22.330,-0.910,-22.960
-0.740,-0.596,0.280,16.170,-2.310,-21.490
-0.728,-0.587,0.295,10.290,-2.590,-20.230
-0.730,-0.585,0.296,5.740,-1.400,-19.810
-0.868,-0.570,0.274,4.830,1.400,-19.880
-0.784,-0.550,0.243,6.650,3.360,-19.880
-0.805,-0.528,0.207,9.170,4.830,-20.300
-0.807,-0.526,0.181,9.870,6.370,-21.070
-0.802,-0.531,0.143,10.430,7.770,-21.000
-0.796,-0.563,0.122,11.130,7.210,-20.160
-0.792,-0.608,0.126,12.040,4.900,-19.390
-0.777,-0.643,0.147,14.420,3.150,-17.080
-0.761,-0.671,0.173,18.340,3.010,-14.350
-0.752,-0.687,0.197,21.910,4.900,-10.780
-0.737,-0.678,0.233,24.430,8.330,-6.860
-0.734,-0.649,0.256,25.200,10.710,-3.850
-0.755,-0.629,0.249,23.100,12.670,-2.380
-0.781,-0.614,0.236,19.390,13.300,-1.890
-0.791,-0.596,0.220,15.330,12.530,-2.100
-0.787,-0.590,0.214,9.800,10.850,-2.450
-0.790,-0.588,0.203,2.800,9.240,-2.660
-0.789,-0.609,0.182,-0.210,8.330,-2.800
-0.786,-0.628,0.165,-0.490,7.350,-2.800
-0.781,-0.641,0.163,1.400,6.300,-2.240
-0.774,-0.648,0.164,5.460,4.900,-2.310
-0.778,-0.673,0.185,8.400,3.570,-2.520
-0.772,-0.685,0.214,9.030,3.150,-1.820
-0.766,-0.674,0.230,8.540,3.220,-0.350
-0.758,-0.657,0.229,7.000,3.710,0.490
-0.753,-0.640,0.222,4.410,3.710,0.840
-0.751,-0.615,0.215,-0.210,2.800,1.260
-0.764,-0.607,0.213,-3.710,1.050,0.840
-0.780,-0.605,0.200,-7.280,0.980,0.490
-0.791,-0.606,0.178,-9.660,1.820,0.700
-0.792,-0.614,0.145,-10.080,2.450,0.350
-0.789,-0.617,0.130,-8.680,2.170,-0.070
-0.770,-0.619,0.131,-6.720,1.120,-0.350
-0.763,-0.623,0.136,-4.550,0.630,-0.420
-0.762,-0.637,0.158,-1.820,0.210,-0.630
-0.761,-0.649,0.169,0.910,-0.140,-0.700
-0.764,-0.655,0.182,3.500,-0.280,-0.840
-0.754,-0.650,0.193,3.780,0.280,-0.280
-0.752,-0.636,0.187,3.500,1.120,0.070
-0.752,-0.622,0.184,3.150,1.400,0.210
-0.751,-0.611,0.176,2.100,0.630,-0.280
-0.766,-0.604,0.161,0.700,-1.120,-0.560
-0.776,-0.601,0.152,0.140,-2.520,-1.190
-0.779,-0.600,0.145,-0.420,-3.850,-1.610
-0.781,-0.607,0.148,-2.170,-4.200,-1.680
-0.778,-0.610,0.141,-3.010,-4.830,-1.260
-0.781,-0.626,0.132,-3.150,-5.600,-1.400
-0.790,-0.636,0.136,-2.240,-8.120,-1.680
-0.793,-0.638,0.157,-1.470,-9.590,-1.400
-0.790,-0.632,0.174,-0.980,-9.870,-0.630
-0.786,-0.621,0.184,-0.980,-9.730,0.630
-0.785,-0.616,0.190,-2.170,-9.170,1.330
-0.773,-0.609,0.196,-3.780,-8.260,2.100
-0.768,-0.600,0.197,-5.810,-7.840,2.660
-0.762,-0.591,0.198,-8.260,-7.910,2.800
-0.763,-0.581,0.192,-9.800,-8.190,2.590
-0.772,-0.579,0.178,-10.290,-9.100,2.240
-0.781,-0.594,0.169,-10.710,-9.800,1.470
-0.782,-0.609,0.161,-9.730,-10.360,1.050
-0.784,-0.631,0.163,-7.560,-11.130,0.700
-0.784,-0.649,0.176,-4.970,-11.200,0.560
-0.781,-0.648,0.190,-3.500,-10.290,0.490
-0.777,-0.645,0.201,-2.380,-7.630,1.190
-0.765,-0.635,0.201,-1.750,-5.320,2.170
-0.756,-0.622,0.202,-1.540,-3.080,3.290
-0.755,-0.603,0.202,-1.820,-1.190,3.640
-0.761,-0.592,0.200,-3.990,0.000,3.150
-0.768,-0.584,0.196,-5.110,0.560,2.240
-0.775,-0.583,0.182,-5.460,0.700,0.840
-0.782,-0.590,0.167,-4.270,0.420,-0.840
-0.784,-0.605,0.155,-2.170,0.280,-1.960
-0.777,-0.616,0.149,1.050,1.610,-2.450
-0.776,-0.629,0.162,4.620,3.150,-2.380
-0.775,-0.635,0.168,7.560,4.410,-2.100
-0.766,-0.634,0.173,9.240,4.760,-1.540
-0.756,-0.628,0.181,9.800,4.550,-1.190
-0.754,-0.620,0.195,9.520,3.990,-0.910
-0.749,-0.611,0.208,7.560,3.710,-0.560
-0.744,-0.592,0.209,5.740,3.990,0.210
-0.752,-0.581,0.193,3.850,4.130,0.280
-0.767,-0.583,0.179,2.030,3.710,-0.210
-0.778,-0.585,0.176,1.050,2.380,-1.120
-0.782,-0.591,0.183,0.700,0.770,-1.960
-0.786,-0.607,0.193,1.120,-1.120,-2.520
-0.779,-0.626,0.191,2.170,-1.400,-2.730
-0.774,-0.638,0.187,3.500,-0.630,-1.820
-0.765,-0.648,0.195,3.990,0.980,-0.420
-0.760,-0.636,0.203,3.010,2.660,2.100
-0.754,-0.623,0.212,0.770,3.710,3.220
-0.759,-0.609,0.211,-2.450,3.710,3.640
-0.761,-0.597,0.197,-5.460,3.010,3.710
-0.770,-0.594,0.182,-7.350,1.820,3.010
-0.779,-0.606,0.168,-7.350,0.770,2.030
-0.791,-0.613,0.165,-5.740,-0.070,0.980

0.167,-1.661,-0.530,-171.360,26.810,-123.130
0.200,-1.752,-0.528,-165.690,20.580,-113.120
0.211,-1.823,-0.520,-157.920,17.780,-102.480
0.218,-1.878,-0.529,-151.480,18.480,-89.390
0.199,-1.891,-0.568,-146.580,23.030,-75.180
0.169,-1.877,-0.653,-140.350,28.980,-58.730
0.142,-1.840,-0.748,-134.750,31.290,-49.560
0.119,-1.839,-0.838,-130.690,26.600,-41.580
0.125,-1.872,-0.885,-125.720,15.260,-33.110
0.144,-1.938,-0.906,-115.710,-4.970,-23.240
0.180,-2.034,-0.890,-100.450,-19.530,-11.550
0.206,-2.131,-0.871,-86.730,-31.990,2.940
0.234,-2.202,-0.880,-75.810,-43.470,25.480
0.237,-2.243,-0.905,-54.460,-53.620,42.700
0.228,-2.234,-0.935,-40.950,-62.720,58.940
0.206,-2.205,-0.971,-31.640,-71.120,73.360
0.176,-2.173,-1.005,-25.410,-78.750,84.980
0.126,-2.155,-1.051,-23.030,-88.550,94.220
0.077,-2.160,-1.089,-24.150,-97.510,101.920
0.050,-2.188,-1.112,-27.230,-106.750,109.130
0.061,-2.201,-1.139,-36.890,-114.660,120.050
0.095,-2.181,-1.174,-44.030,-123.410,124.950
0.123,-2.198,-1.213,-43.470,-133.070,129.990
0.166,-2.249,-1.214,-33.110,-140.980,136.360
0.188,-2.298,-1.194,-12.670,-145.390,145.390
0.187,-2.321,-1.162,19.110,-146.860,158.270
0.162,-2.290,-1.169,45.360,-146.580,174.090
0.109,-2.201,-1.197,77.980,-145.460,190.680
0.074,-2.073,-1.227,109.690,-144.340,205.100
0.053,-1.939,-1.239,137.690,-141.960,217.840
0.053,-1.799,-1.239,168.280,-137.900,230.860
0.044,-1.666,-1.192,184.730,-134.470,237.860
0.040,-1.563,-1.093,194.600,-129.500,244.160
0.049,-1.446,-0.983,197.960,-122.640,248.430
0.072,-1.347,-0.840,197.120,-116.830,249.340
0.085,-1.272,-0.691,192.080,-108.780,248.780
0.107,-1.181,-0.570,184.450,-95.060,249.130
0.147,-1.071,-0.459,174.580,-73.990,249.690
0.176,-0.932,-0.443,164.990,-57.540,249.270
0.192,-0.780,-0.433,156.940,-42.770,245.840
0.196,-0.640,-0.447,148.820,-30.520,239.330
0.212,-0.521,-0.465,141.260,-18.830,228.550
0.221,-0.362,-0.459,134.190,-10.360,219.730
0.200,-0.290,-0.494,133.140,-3.780,208.880
0.200,-0.282,-0.522,132.160,3.150,197.750
0.198,-0.271,-0.508,132.230,9.450,187.880
0.219,-0.263,-0.486,134.820,16.660,179.620
0.255,-0.267,-0.432,136.990,24.430,171.570
0.309,-0.261,-0.345,136.010,35.140,164.290
0.360,-0.226,-0.291,132.300,43.680,158.970
0.399,-0.197,-0.251,127.260,49.770,153.930
0.422,-0.185,-0.221,119.350,53.130,147.910
0.434,-0.131,-0.222,108.080,54.320,141.960
0.424,-0.059,-0.244,94.780,50.190,139.650
0.381,-0.023,-0.268,77.000,41.790,130.060
0.294,-0.007,-0.270,65.800,27.720,116.620
0.226,0.000,-0.261,55.300,7.070,99.260
0.175,-0.020,-0.249,43.400,-16.030,76.510
0.131,-0.061,-0.256,37.240,-39.270,64.680
0.092,-0.107,-0.235,28.000,-65.870,57.470
0.048,-0.146,-0.197,18.550,-92.820,54.810
0.022,-0.159,-0.159,11.340,-114.310,55.230
-0.003,-0.170,-0.145,12.740,-130.690,56.980
-0.062,-0.147,-0.077,12.740,-140.000,57.750
-0.020,-0.124,0.116,13.300,-94.500,59.430
0.052,-0.054,-0.015,22.190,-64.540,63.490
-0.133,-0.082,-0.002,32.130,-62.230,69.300
-0.285,-0.087,0.015,36.680,-62.930,70.700
-0.348,-0.032,0.038,38.080,-64.470,66.080
-0.394,-0.029,0.068,38.150,-66.500,59.150
-0.431,-0.062,0.102,39.620,-69.650,52.710
-0.462,-0.132,0.137,42.630,-70.910,47.600
-0.483,-0.180,0.140,49.210,-70.770,43.610
-0.508,-0.223,0.164,53.900,-69.650,40.390
-0.513,-0.213,0.216,54.740,-68.250,38.640
-0.537,-0.201,0.262,51.660,-64.190,37.240
-0.552,-0.163,0.296,48.860,-60.830,35.700
-0.581,-0.146,0.317,42.980,-56.840,34.440
-0.612,-0.132,0.315,36.750,-53.200,33.040
-0.651,-0.124,0.309,31.150,-50.610,31.430
-0.685,-0.131,0.297,26.950,-48.160,28.840
-0.706,-0.176,0.288,25.760,-46.900,22.330
-0.731,-0.228,0.291,30.240,-45.220,16.940
-0.737,-0.277,0.301,38.850,-43.050,12.180
-0.729,-0.333,0.320,47.740,-38.290,8.680
-0.715,-0.343,0.346,55.720,-31.570,7.420
-0.721,-0.360,0.354,59.920,-25.410,6.510
-0.721,-0.372,0.362,58.590,-18.340,7.070
-0.708,-0.353,0.373,51.660,-13.510,8.260
-0.710,-0.317,0.363,42.350,-7.700,8.540
-0.716,-0.290,0.356,31.290,-2.310,7.630
-0.737,-0.275,0.337,22.890,-0.070,5.040
-0.773,-0.286,0.324,14.420,-2.730,1.190
-0.800,-0.306,0.309,3.430,-9.100,-4.830
-0.813,-0.346,0.310,-0.840,-16.800,-9.240
-0.815,-0.375,0.306,-2.940,-23.800,-12.740
-0.815,-0.409,0.309,-1.470,-29.190,-15.260
-0.810,-0.457,0.337,2.170,-33.250,-17.010
-0.790,-0.492,0.365,5.670,-31.990,-16.450
-0.771,-0.510,0.373,9.170,-26.600,-14.560
-0.761,-0.511,0.352,11.760,-18.760,-11.760
-0.764,-0.507,0.328,12.460,-10.990,-7.980
-0.782,-0.491,0.299,11.410,-4.480,-6.160
-0.809,-0.469,0.281,8.610,-0.280,-5.740
-0.834,-0.451,0.267,4.410,1.400,-6.720
-0.842,-0.454,0.265,0.630,-17.500,-8.890
-0.836,-0.475,0.264,-1.680,-2.100,-10.990
-0.833,-0.502,0.277,-1.750,-3.640,-12.600
-0.836,-0.531,0.289,0.700,-3.500,-14.000
-0.834,-0.555,0.297,4.830,-1.820,-14.280
-0.833,-0.586,0.310,11.550,0.420,-13.300
-0.823,-0.594,0.321,15.470,3.080,-11.480
-0.811,-0.589,0.331,19.250,6.860,-9.380
-0.809,-0.566,0.315,21.770,11.410,-7.980
-0.809,-0.549,0.302,21.140,15.750,-6.650
-0.812,-0.523,0.280,18.690,19.180,-5.950
-0.822,-0.510,0.244,14.980,20.720,-6.160
-0.834,-0.513,0.229,10.850,19.110,-7.700
-0.850,-0.522,0.229,6.650,16.030,-9.940
-0.848,-0.533,0.232,3.500,12.530,-11.760
-0.835,-0.556,0.235,2.030,9.310,-12.880
-0.824,-0.583,0.239,3.080,7.350,-13.440
-0.818,-0.607,0.246,5.390,7.140,-13.020
-0.807,-0.619,0.261,6.230,7.420,-12.040
-0.788,-0.625,0.279,4.760,7.910,-10.290
-0.776,-0.621,0.281,3.010,8.260,-8.260
-0.771,-0.612,0.279,0.490,8.400,-6.720
-0.779,-0.585,0.270,-2.310,8.750,-5.390
-0.792,-0.564,0.245,-5.600,8.750,-5.110
-0.801,-0.554,0.233,-8.330,7.420,-5.600
-0.819,-0.562,0.219,-10.220,5.810,-6.720
-0.821,-0.582,0.176,-10.710,5.880,-6.860
-0.813,-0.607,0.145,-8.470,5.740,-6.440
-0.815,-0.630,0.132,-0.770,5.390,-5.740
-0.818,-0.640,0.158,4.060,4.760,-5.180
-0.807,-0.637,0.193,6.650,4.550,-4.270
-0.785,-0.627,0.230,7.490,5.180,-2.940
-0.770,-0.602,0.254,7.420,7.000,-1.750
-0.759,-0.582,0.260,4.970,9.660,-0.770
-0.755,-0.567,0.248,1.120,9.450,-0.280
-0.761,-0.555,0.236,-3.010,7.840,-0.210
-0.777,-0.547,0.226,-6.300,5.250,-1.330
-0.797,-0.549,0.211,-8.260,3.150,-3.360
-0.810,-0.549,0.198,-8.260,1.540,-5.880
-0.816,-0.562,0.182,-5.880,0.490,-7.140
-0.816,-0.590,0.156,-2.730,0.630,-8.120
-0.814,-0.618,0.142,1.260,0.560,-8.050
-0.807,-0.640,0.142,4.270,0.280,-6.930
-0.794,-0.643,0.169,6.650,-0.350,-5.530
-0.782,-0.635,0.200,7.700,-0.280,-4.130
-0.776,-0.611,0.226,7.840,0.560,-3.220
-0.779,-0.585,0.236,6.090,1.540,-2.450
-0.780,-0.564,0.233,3.360,2.030,-2.240
-0.785,-0.556,0.222,0.350,1.400,-2.660
-0.794,-0.562,0.212,-1.610,-0.210,-3.850
-0.808,-0.584,0.198,-3.220,-1.750,-5.110
-0.808,-0.593,0.189,-2.520,-2.800,-5.670
-0.806,-0.611,0.185,-0.070,-2.590,-5.810
-0.798,-0.624,0.186,3.430,-0.350,-5.320
-0.790,-0.627,0.191,6.930,1.610,-4.130
-0.784,-0.623,0.203,9.170,3.010,-2.590
-0.773,-0.608,0.212,8.960,4.200,-1.050
-0.766,-0.585,0.219,7.350,4.480,-0.490
-0.765,-0.576,0.223,3.290,4.550,-0.420
-0.766,-0.573,0.216,0.210,3.780,-0.420
-0.774,-0.581,0.207,-2.100,1.960,-0.420
-0.778,-0.584,0.204,-4.200,0.000,-0.350
-0.781,-0.582,0.201,-4.270,-0.700,-0.210
-0.780,-0.586,0.203,-2.520,-0.210,-0.490
-0.792,-0.593,0.204,0.420,0.700,-0.700
-0.793,-0.598,0.195,3.640,1.750,-0.420
-0.786,-0.594,0.196,6.650,2.100,0.490
-0.777,-0.581,0.206,8.470,2.520,0.770
-0.771,-0.564,0.219,8.330,2.870,0.770
-0.761,-0.554,0.233,5.810,2.660,0.980
-0.753,-0.540,0.240,0.910,1.890,1.540
-0.744,-0.535,0.238,-2.100,0.910,1.680
-0.756,-0.537,0.226,-4.410,0.140,1.610
-0.769,-0.535,0.224,-6.300,-1.050,1.330
-0.774,-0.537,0.220,-6.300,-1.610,0.630
-0.784,-0.548,0.218,-5.600,-1.610,-0.490
-0.796,-0.561,0.208,-3.290,-1.050,-1.540
-0.788,-0.564,0.208,0.000,-0.350,-1.890
-0.774,-0.562,0.214,2.800,0.350,-2.240
-0.767,-0.560,0.221,4.620,0.840,-2.520
-0.762,-0.556,0.225,5.390,0.560,-2.730
-0.751,-0.548,0.232,4.410,0.070,-2.590
-0.741,-0.535,0.229,2.100,-0.210,-1.820
-0.746,-0.521,0.218,-0.630,-0.630,-1.540
-0.765,-0.526,0.191,-3.360,-1.890,-1.750
-0.780,-0.539,0.189,-5.390,-4.270,-2.590
-0.790,-0.551,0.199,-5.880,-6.860,-3.920
-0.796,-0.561,0.212,-4.760,-7.770,-5.740
-0.796,-0.586,0.212,-2.450,-7.280,-6.720
-0.794,-0.599,0.209,1.260,-5.880,-6.790
-0.788,-0.604,0.213,4.900,-4.690,-6.510
-0.775,-0.601,0.228,6.930,-3.080,-5.810
-0.767,-0.586,0.237,7.560,-1.960,-5.460
-0.759,-0.576,0.245,5.740,-1.540,-4.900

0.381,-1.545,-0.451,-201.110,38.150,-206.570
0.440,-1.679,-0.526,-209.090,28.490,-204.190
0.498,-1.861,-0.569,-209.020,14.910,-197.260
0.527,-2.009,-0.557,-199.920,0.630,-183.470
0.534,-2.127,-0.572,-184.800,-15.050,-163.660
0.504,-2.261,-0.625,-165.130,-19.810,-140.980
0.477,-2.369,-0.686,-141.820,-20.300,-118.020
0.462,-2.423,-0.768,-119.350,-17.290,-78.190
0.454,-2.436,-0.831,-103.320,-15.540,-66.990
0.436,-2.418,-0.880,-103.740,-15.680,-45.780
0.423,-2.395,-0.934,-111.160,-18.690,-26.390
0.407,-2.405,-1.021,-118.650,-24.150,-8.330
0.406,-2.457,-1.093,-122.990,-29.890,9.380
0.401,-2.589,-1.162,-120.190,-39.690,26.670
0.362,-2.734,-1.210,-109.130,-52.290,44.520
0.319,-2.979,-1.257,-81.970,-63.840,71.820
0.277,-3.001,-1.328,-58.380,-75.810,89.740
0.234,-3.075,-1.410,-37.240,-85.540,110.250
0.248,-3.156,-1.453,-20.440,-89.110,133.840
0.245,-3.187,-1.524,-4.130,-114.660,152.040
0.187,-3.181,-1.539,9.100,-140.910,167.160
0.170,-3.147,-1.446,24.010,-161.350,183.680
0.176,-3.081,-1.371,41.510,-171.220,201.040
0.181,-2.994,-1.325,63.490,-171.010,218.330
0.199,-2.890,-1.328,90.650,-164.640,235.270
0.232,-2.774,-1.370,138.180,-154.210,256.760
0.290,-2.586,-1.323,160.440,-145.180,272.860
0.362,-2.411,-1.335,189.630,-135.870,289.030
0.423,-2.234,-1.300,215.320,-126.000,304.010
0.496,-2.052,-1.261,239.890,-115.010,316.540
0.545,-1.874,-1.178,259.700,-102.970,326.270
0.590,-1.688,-1.098,267.750,-89.530,334.460
0.634,-1.505,-1.001,269.990,-74.200,339.920
0.644,-1.319,-0.908,266.840,-65.870,342.650
0.633,-1.131,-0.854,262.290,-56.280,341.810
0.604,-0.937,-0.727,254.730,-49.630,338.870
0.592,-0.743,-0.699,226.660,-42.350,333.060
0.565,-0.541,-0.678,200.130,-37.590,317.450
0.535,-0.334,-0.650,180.320,-36.120,300.860
0.496,-0.207,-0.597,165.340,-36.610,281.330
0.450,-0.099,-0.512,147.350,-37.520,261.100
0.400,0.001,-0.488,133.980,-34.720,241.500
0.365,0.046,-0.462,118.510,-31.360,220.850
0.328,0.029,-0.431,103.670,-33.040,199.360
0.314,-0.053,-0.393,94.080,-35.210,181.650
0.352,-0.162,-0.325,90.370,-33.950,170.450
0.392,-0.262,-0.261,93.870,-28.770,168.420
0.438,-0.322,-0.225,105.980,-18.480,171.990
0.464,-0.304,-0.193,121.730,-4.620,177.310
0.456,-0.139,-0.160,136.150,8.820,178.500
0.434,0.029,-0.142,135.800,18.830,182.000
0.428,0.163,-0.131,122.640,24.150,178.710
0.359,0.230,-0.165,106.400,20.580,168.910
0.265,0.235,-0.180,91.630,7.210,147.840
0.168,0.177,-0.162,72.870,-8.400,117.250
0.084,0.141,-0.129,55.930,-28.140,88.340
0.027,0.056,-0.063,37.870,-50.120,61.810
-0.020,-0.021,0.013,13.580,-72.870,41.090
-0.061,-0.081,0.054,-20.440,-117.320,25.410
-0.132,-0.145,-0.020,-34.300,-132.790,14.490
-0.158,-0.173,-0.108,-41.930,-154.420,11.130
-0.177,-0.134,-0.038,-4.410,-161.490,34.230
-0.099,-0.142,0.137,-23.450,-104.510,22.820
0.135,-0.019,-0.081,-2.590,-22.190,29.120
0.036,-0.188,-0.106,21.630,-10.080,46.200
-0.220,-0.243,-0.043,39.270,-11.270,51.590
-0.353,-0.165,0.033,49.210,-12.670,46.900
-0.438,-0.133,0.120,52.920,-17.010,39.900
-0.507,-0.169,0.155,55.300,-21.140,34.370
-0.546,-0.224,0.195,57.470,-23.730,31.010
-0.543,-0.286,0.226,59.850,-25.060,27.930
-0.546,-0.325,0.240,58.800,-26.040,26.390
-0.547,-0.307,0.225,54.460,-26.180,27.510
-0.541,-0.279,0.202,47.390,-26.180,28.070
-0.543,-0.217,0.152,41.020,-26.740,28.350
-0.554,-0.170,0.139,34.300,-27.230,25.900
-0.577,-0.149,0.142,28.000,-27.580,22.260
-0.625,-0.156,0.163,23.170,-27.230,17.570
-0.671,-0.179,0.178,21.910,-26.740,12.320
-0.725,-0.222,0.192,23.940,-25.340,6.510
-0.733,-0.271,0.194,29.820,-23.870,0.560
-0.731,-0.320,0.220,37.450,-21.630,-3.500
-0.710,-0.354,0.261,44.240,-18.970,-5.040
-0.681,-0.251,0.318,49.000,-15.680,-3.290
-0.666,-0.359,0.346,50.400,-12.740,-1.680
-0.660,-0.351,0.346,50.540,-9.940,-1.050
-0.657,-0.336,0.329,49.980,-6.230,-2.030
-0.660,-0.324,0.314,48.300,-1.750,-3.500
-0.686,-0.297,0.297,45.850,-0.070,-5.180
-0.706,-0.273,0.296,42.490,0.350,-7.350
-0.727,-0.275,0.291,38.570,0.980,-11.480
-0.752,-0.312,0.291,35.280,0.350,-34.580
-0.766,-0.393,0.287,33.600,-2.170,-22.680
-0.760,-0.448,0.287,34.230,-5.460,-25.270
-0.740,-0.484,0.311,34.720,-8.540,-27.090
-0.714,-0.505,0.342,33.810,-9.520,-27.160
-0.683,-0.494,0.384,30.590,-7.490,-25.060
-0.656,-0.477,0.396,25.550,-4.760,-22.120
-0.644,-0.471,0.393,20.930,-1.610,-19.320
-0.640,-0.452,0.382,16.240,1.890,-16.380
-0.665,-0.415,0.364,13.650,5.810,-14.280
-0.703,-0.394,0.338,10.430,10.080,-14.980
-0.739,-0.394,0.334,5.810,12.250,-16.660
-0.759,-0.421,0.311,2.870,12.670,-18.830
-0.776,-0.479,0.286,1.960,11.200,-21.070
-0.787,-0.548,0.281,3.500,9.100,-22.680
-0.787,-0.594,0.294,5.600,8.260,-22.260
-0.772,-0.623,0.318,7.560,11.200,-19.810
-0.746,-0.628,0.327,9.590,15.820,-15.470
-0.737,-0.613,0.339,9.660,20.790,-10.710
-0.738,-0.581,0.328,8.820,24.850,-7.000
-0.750,-0.551,0.319,8.470,26.110,-4.480
-0.771,-0.528,0.297,6.650,26.180,-4.550
-0.791,-0.498,0.274,4.410,24.920,-5.880
-0.810,-0.497,0.261,1.960,22.120,-8.680
-0.821,-0.513,0.253,0.000,18.200,-12.040
-0.816,-0.543,0.238,-1.050,14.350,-14.700
-0.801,-0.587,0.243,-0.490,9.940,-16.450
-0.782,-0.624,0.251,0.560,8.610,-16.380
-0.765,-0.643,0.262,1.820,8.610,-14.910
-0.748,-0.643,0.269,3.360,10.220,-13.160
-0.734,-0.618,0.267,3.290,12.250,-11.060
-0.732,-0.587,0.243,0.490,13.370,-9.450
-0.734,-0.571,0.218,-1.820,12.320,-9.450
-0.743,-0.562,0.203,-3.360,9.380,-10.430
-0.770,-0.559,0.201,-3.500,5.250,-12.390
-0.795,-0.565,0.196,-3.570,1.330,-14.700
-0.790,-0.583,0.203,-4.480,-1.120,-16.310
-0.784,-0.610,0.220,-5.110,-3.080,-17.360
-0.773,-0.637,0.241,-6.090,-4.130,-17.500
-0.753,-0.663,0.249,-6.860,-3.780,-16.310
-0.739,-0.668,0.255,-6.370,-2.310,-14.490
-0.721,-0.663,0.253,-7.000,0.280,-12.180
-0.703,-0.642,0.241,-8.400,3.640,-10.150
-0.703,-0.620,0.215,-9.800,5.040,-8.750
-0.711,-0.621,0.189,-9.940,5.110,-8.470
-0.730,-0.626,0.175,-9.030,3.640,-8.890
-0.755,-0.625,0.183,-6.370,0.980,-10.220
-0.774,-0.641,0.189,-4.620,-0.210,-11.270
-0.775,-0.655,0.198,-3.290,-0.980,-11.340
-0.769,-0.664,0.212,-0.840,-1.680,-10.850
-0.752,-0.677,0.234,0.420,-1.680,-9.940
-0.740,-0.666,0.247,1.400,-0.350,-8.190
-0.729,-0.642,0.256,0.000,1.610,-6.160
-0.723,-0.613,0.254,-3.780,2.870,-4.830
-0.710,-0.586,0.247,-10.010,2.870,-3.920
-0.696,-0.575,0.236,-14.770,1.610,-3.850
-0.685,-0.562,0.224,-19.040,-0.560,-3.850
-0.692,-0.553,0.204,-21.490,-3.290,-4.480
-0.717,-0.556,0.183,-23.240,-5.110,-5.740
-0.718,-0.572,0.168,-23.940,-7.980,-6.370
-0.710,-0.589,0.172,-22.680,-11.060,-6.790
-0.704,-0.609,0.192,-21.210,-13.440,-6.930
-0.691,-0.617,0.206,-18.620,-14.420,-6.720
-0.671,-0.619,0.224,-17.990,-14.070,-5.530
-0.642,-0.608,0.229,-17.360,-12.880,-3.990
-0.622,-0.594,0.229,-17.710,-10.360,-2.170
-0.604,-0.561,0.224,-19.530,-7.980,-0.560
-0.610,-0.541,0.202,-20.860,-6.720,-1.050
-0.642,-0.549,0.183,-21.700,-8.120,-2.870
-0.678,-0.567,0.163,-21.910,-12.810,-4.970
-0.688,-0.592,0.144,-21.350,-16.870,-6.370
-0.683,-0.617,0.150,-19.320,-20.020,-7.000
-0.675,-0.635,0.161,-15.470,-21.630,-7.210
-0.666,-0.654,0.179,-9.450,-22.260,-7.070
-0.655,-0.668,0.185,-3.990,-22.120,-5.950
-0.638,-0.684,0.205,0.630,-20.930,-4.270
-0.604,-0.686,0.219,2.730,-18.130,-1.260
-0.597,-0.660,0.210,3.920,-13.720,2.030
-0.622,-0.646,0.192,5.110,-10.080,3.640
-0.680,-0.639,0.184,5.740,-9.520,3.290
-0.726,-0.633,0.178,5.180,-11.340,0.770
-0.731,-0.632,0.170,3.500,-14.070,-1.050
-0.723,-0.642,0.162,3.290,-17.220,-2.240
-0.714,-0.662,0.161,6.440,-20.510,-2.870
-0.704,-0.695,0.160,11.900,-24.010,-2.730
-0.684,-0.717,0.162,19.320,-25.620,-1.260
-0.644,-0.739,0.171,27.160,-26.040,1.330
-0.583,-0.748,0.201,28.490,-23.450,9.100
-0.530,-0.661,0.236,20.650,-17.850,17.150
-0.510,-0.580,0.270,12.180,-12.460,22.680
-0.513,-0.547,0.253,3.570,-9.170,24.010
-0.553,-0.549,0.219,-5.180,-9.310,22.750
-0.611,-0.558,0.189,-13.440,-13.720,20.160
-0.628,-0.554,0.178,-21.980,-18.410,18.550
-0.627,-0.556,0.186,-28.770,-22.330,17.150
-0.608,-0.556,0.174,-30.660,-24.780,16.520
-0.587,-0.565,0.184,-26.600,-27.090,16.450
-0.564,-0.578,0.195,-18.690,-28.700,16.940
-0.531,-0.589,0.209,-11.410,-29.470,18.830
-0.471,-0.575,0.247,-8.960,-25.550,22.470
-0.437,-0.503,0.271,-10.570,-19.110,27.580
-0.437,-0.423,0.275,-15.120,-14.070,30.450
-0.479,-0.369,0.253,-18.970,-12.880,29.330
-0.535,-0.347,0.199,-23.100,-14.210,23.030
-0.586,-0.341,0.170,-24.360,-17.570,16.870
-0.627,-0.347,0.154,-26.460,-20.930,10.780
-0.647,-0.356,0.164,-28.630,-22.890,4.970
-0.654,-0.357,0.185,-31.010,-22.400,-0.420

0.277,-1.550,-0.680,-217.630,53.690,-201.600
0.328,-1.680,-0.788,-226.660,56.490,-186.200
0.348,-1.783,-0.883,-228.130,55.720,-161.420
0.359,-1.824,-0.920,-220.920,49.000,-146.370
0.380,-1.858,-0.929,-210.560,37.730,-131.880
0.409,-1.902,-0.942,-193.550,24.920,-114.730
0.434,-1.988,-0.983,-169.960,9.730,-93.940
0.440,-2.065,-1.025,-137.970,-0.280,-73.360
0.452,-2.122,-1.101,-99.610,-9.450,-36.680
0.472,-2.158,-1.171,-54.670,-20.510,-28.560
0.490,-2.195,-1.272,-35.070,-31.220,-8.540
0.485,-2.229,-1.363,-22.750,-42.350,10.360
0.444,-2.285,-1.439,-16.240,-56.490,28.490
0.405,-2.350,-1.484,-13.440,-64.820,46.760
0.344,-2.404,-1.524,-11.760,-72.870,63.280
0.273,-2.467,-1.549,-10.500,-81.340,85.330
0.189,-2.518,-1.513,-4.690,-92.960,99.680
0.132,-2.561,-1.501,3.850,-105.420,115.220
0.109,-2.615,-1.494,22.120,-118.860,129.990
0.109,-2.652,-1.484,46.060,-133.000,145.530
0.130,-2.645,-1.462,73.010,-144.410,161.280
0.171,-2.629,-1.469,98.980,-155.610,175.700
0.199,-2.603,-1.459,122.640,-161.140,189.070
0.223,-2.562,-1.478,142.450,-161.560,202.090
0.228,-2.500,-1.498,161.700,-159.880,213.850
0.220,-2.449,-1.500,179.200,-158.550,228.200
0.212,-2.366,-1.436,198.310,-157.710,239.960
