aX,aY,aZ,gX,gY,gZ
-0.414,-0.929,-0.567,-13.320,12.273,10.192
-0.409,-0.929,-0.574,-16.129,10.271,11.299
-0.406,-0.926,-0.581,-19.700,7.386,12.366
-0.403,-0.922,-0.587,-23.811,3.324,13.319
-0.400,-0.917,-0.590,-28.282,-2.679,14.192
-0.395,-0.914,-0.593,-32.967,-9.854,14.949
-0.389,-0.914,-0.598,-36.911,-17.817,15.607
-0.379,-0.920,-0.605,-39.634,-26.046,16.354
-0.369,-0.927,-0.615,-40.949,-35.079,17.415
-0.358,-0.932,-0.625,-41.142,-45.024,19.000
-0.347,-0.934,-0.635,-40.616,-55.813,20.817
-0.336,-0.934,-0.645,-39.962,-69.742,22.752
-0.327,-0.931,-0.652,-39.182,-86.457,24.551
-0.320,-0.927,-0.657,-38.390,-105.557,26.151
-0.318,-0.923,-0.656,-37.790,-127.181,27.546
-0.313,-0.917,-0.651,-37.550,-148.966,28.628
-0.309,-0.909,-0.642,-37.664,-170.563,29.452
-0.306,-0.902,-0.629,-37.908,-191.530,30.029
-0.305,-0.895,-0.613,-38.051,-210.367,30.419
-0.306,-0.888,-0.596,-38.016,-226.160,30.755
-0.308,-0.881,-0.578,-37.813,-239.025,31.063
-0.312,-0.875,-0.555,-37.577,-249.699,31.253
-0.318,-0.868,-0.529,-37.462,-258.831,31.261
-0.327,-0.861,-0.499,-37.500,-267.226,31.154
-0.338,-0.855,-0.464,-37.568,-274.284,31.038
-0.349,-0.850,-0.425,-37.475,-279.290,31.013
-0.361,-0.848,-0.386,-37.120,-280.995,31.119
-0.371,-0.846,-0.348,-36.368,-279.464,30.945
-0.375,-0.837,-0.308,-35.435,-273.636,30.631
-0.384,-0.819,-0.269,-34.622,-265.900,30.222
-0.399,-0.791,-0.227,-34.486,-257.948,29.594
-0.416,-0.761,-0.182,-35.176,-250.582,28.788
-0.439,-0.732,-0.135,-36.847,-244.229,27.743
-0.461,-0.708,-0.084,-38.678,-239.182,26.697
-0.480,-0.695,-0.024,-39.607,-235.244,25.932
-0.486,-0.686,0.022,-39.032,-228.748,25.712
-0.499,-0.681,0.072,-37.083,-221.825,25.818
-0.512,-0.672,0.117,-33.090,-215.779,25.756
-0.520,-0.662,0.151,-28.521,-202.636,25.303
-0.526,-0.652,0.169,-23.620,-182.892,24.400
-0.534,-0.644,0.179,-19.356,-163.348,22.718
-0.542,-0.640,0.181,-15.748,-146.443,20.541
-0.551,-0.639,0.176,-12.382,-132.668,18.140
-0.558,-0.642,0.167,-9.156,-119.913,15.926
-0.564,-0.645,0.156,-6.261,-107.679,14.144
-0.570,-0.648,0.143,-3.739,-96.141,12.569
-0.578,-0.649,0.130,-1.769,-87.543,11.218
-0.589,-0.648,0.119,-0.533,-81.830,10.252
-0.601,-0.646,0.110,-0.077,-78.712,9.528
-0.613,-0.643,0.104,-0.058,-77.186,9.022
-0.623,-0.639,0.102,-0.476,-76.504,8.698
-0.633,-0.634,0.101,-1.481,-76.826,8.564
-0.641,-0.630,0.102,-2.734,-77.987,8.559
-0.648,-0.626,0.106,-3.965,-79.636,8.655
-0.653,-0.623,0.110,-4.967,-81.153,8.839
-0.656,-0.622,0.116,-5.549,-82.046,9.041
-0.658,-0.621,0.124,-5.736,-81.929,9.272
-0.659,-0.620,0.133,-5.607,-81.093,9.498
-0.658,-0.620,0.142,-5.157,-79.685,9.645
-0.658,-0.618,0.151,-4.444,-77.982,9.707
-0.659,-0.615,0.160,-3.542,-75.396,9.654
-0.660,-0.611,0.167,-2.607,-72.053,9.432
-0.663,-0.606,0.174,-1.842,-68.242,9.069
-0.666,-0.601,0.180,-1.281,-64.156,8.560
-0.670,-0.597,0.184,-0.883,-60.135,7.930
-0.674,-0.593,0.188,-0.601,-56.306,7.220
-0.677,-0.591,0.191,-0.360,-52.705,6.542
-0.680,-0.590,0.193,-0.140,-49.404,5.956
-0.683,-0.589,0.194,0.086,-46.429,5.542
-0.686,-0.589,0.195,0.345,-43.915,5.258
-0.690,-0.589,0.195,0.620,-42.171,5.089
-0.694,-0.589,0.196,0.865,-40.982,5.012
-0.698,-0.588,0.196,1.056,-40.220,5.053
-0.702,-0.588,0.197,1.173,-39.662,5.163
-0.705,-0.588,0.198,1.246,-39.300,5.315
-0.708,-0.588,0.199,1.270,-39.099,5.474
-0.711,-0.587,0.201,1.241,-38.926,5.609
-0.713,-0.586,0.203,1.112,-38.705,5.668
-0.715,-0.585,0.205,0.926,-38.391,5.668
-0.717,-0.585,0.208,0.716,-37.925,5.614
-0.718,-0.584,0.211,0.516,-37.357,5.516
-0.719,-0.584,0.214,0.367,-36.707,5.379
-0.720,-0.583,0.217,0.258,-35.934,5.212
-0.722,-0.582,0.220,0.205,-34.995,5.013
-0.723,-0.582,0.223,0.202,-33.810,4.784
-0.725,-0.581,0.226,0.247,-32.461,4.509
-0.726,-0.580,0.230,0.333,-30.943,4.142
-0.727,-0.579,0.232,0.431,-29.227,3.726
-0.728,-0.578,0.235,0.529,-27.288,3.259
-0.729,-0.577,0.238,0.616,-25.257,2.748
-0.730,-0.576,0.241,0.691,-23.235,2.224
-0.731,-0.575,0.243,0.716,-21.319,1.729
-0.733,-0.574,0.245,0.719,-19.584,1.280
-0.734,-0.574,0.247,0.711,-18.177,0.898
-0.736,-0.574,0.248,0.691,-17.067,0.597
-0.738,-0.573,0.249,0.659,-16.243,0.422
-0.741,-0.573,0.250,0.621,-15.680,0.336
-0.743,-0.573,0.252,0.602,-15.318,0.336
-0.744,-0.574,0.253,0.608,-15.155,0.429
-0.746,-0.574,0.254,0.647,-15.081,0.604
-0.748,-0.574,0.256,0.715,-15.067,0.865
-0.749,-0.573,0.257,0.774,-15.072,1.165
-0.751,-0.573,0.259,0.826,-15.027,1.481
-0.752,-0.572,0.260,0.857,-14.913,1.788
-0.752,-0.571,0.261,0.841,-14.697,2.031
-0.753,-0.570,0.262,0.818,-14.392,2.229
-0.754,-0.569,0.263,0.744,-13.975,2.383
-0.755,-0.568,0.263,0.610,-13.478,2.493
-0.756,-0.567,0.264,0.426,-12.938,2.549
-0.757,-0.567,0.264,0.227,-12.380,2.575
-0.758,-0.567,0.265,0.044,-11.793,2.594
-0.759,-0.567,0.266,-0.100,-11.173,2.596
-0.759,-0.566,0.267,-0.199,-10.514,2.581
-0.760,-0.566,0.267,-0.281,-9.809,2.552
-0.761,-0.565,0.268,-0.373,-9.047,2.505
-0.761,-0.564,0.268,-0.428,-8.229,2.446
-0.762,-0.564,0.268,-0.392,-7.412,2.390
-0.762,-0.564,0.269,-0.317,-5.711,2.329
-0.763,-0.563,0.269,-0.218,-4.798,2.265

0.141,-1.163,-0.644,0.411,-8.854,3.474
0.154,-1.166,-0.654,0.493,-14.643,5.817
0.167,-1.166,-0.664,-0.028,-22.285,8.973
0.179,-1.165,-0.674,-1.404,-32.724,12.731
0.191,-1.164,-0.683,-3.674,-44.963,16.797
0.203,-1.163,-0.693,-6.903,-58.399,21.081
0.216,-1.163,-0.702,-10.545,-72.479,25.566
0.229,-1.162,-0.711,-14.201,-88.050,30.250
0.240,-1.161,-0.719,-17.675,-104.561,35.270
0.250,-1.158,-0.725,-20.689,-122.109,40.399
0.258,-1.154,-0.729,-22.999,-140.798,45.400
0.261,-1.150,-0.728,-24.507,-161.323,50.066
0.261,-1.146,-0.726,-25.460,-182.131,54.435
0.258,-1.141,-0.718,-25.803,-202.089,58.314
0.252,-1.134,-0.706,-25.650,-221.646,61.883
0.243,-1.127,-0.686,-25.072,-241.532,65.001
0.229,-1.120,-0.658,-24.328,-259.565,68.020
0.213,-1.112,-0.625,-23.294,-275.239,71.208
0.193,-1.105,-0.589,-21.666,-288.195,74.412
0.171,-1.099,-0.550,-20.021,-296.473,77.647
0.149,-1.092,-0.513,-18.345,-300.752,81.005
0.127,-1.087,-0.476,-16.852,-301.807,84.249
0.106,-1.078,-0.440,-15.735,-300.806,87.294
0.084,-1.065,-0.400,-15.002,-299.042,90.125
0.062,-1.047,-0.354,-14.679,-297.466,92.634
0.040,-1.024,-0.303,-14.851,-295.704,94.561
0.017,-0.993,-0.248,-15.818,-292.871,95.389
-0.005,-0.961,-0.191,-17.339,-287.258,95.360
-0.025,-0.927,-0.134,-19.380,-279.987,94.407
-0.046,-0.892,-0.076,-22.131,-271.564,92.485
-0.067,-0.861,-0.019,-25.378,-262.910,90.291
-0.088,-0.834,0.034,-28.531,-255.556,88.081
-0.108,-0.814,0.082,-30.939,-248.626,85.917
-0.128,-0.801,0.124,-31.961,-239.031,83.847
-0.148,-0.792,0.157,-31.975,-227.071,81.955
-0.167,-0.787,0.182,-31.281,-212.896,80.341
-0.187,-0.783,0.202,-29.124,-197.691,78.941
-0.206,-0.780,0.217,-26.333,-182.166,77.430
-0.225,-0.777,0.225,-22.384,-167.475,75.685
-0.242,-0.773,0.229,-17.804,-154.153,73.837
-0.258,-0.766,0.230,-13.740,-141.970,71.347
-0.273,-0.759,0.227,-10.622,-130.776,68.467
-0.289,-0.751,0.221,-8.276,-120.756,65.222
-0.305,-0.744,0.215,-6.519,-111.829,61.521
-0.321,-0.736,0.209,-5.348,-103.906,57.598
-0.337,-0.728,0.204,-4.594,-96.801,53.416
-0.351,-0.719,0.200,-4.201,-90.108,48.886
-0.363,-0.713,0.198,-4.185,-83.565,44.062
-0.375,-0.708,0.197,-4.360,-77.039,39.492
-0.385,-0.707,0.197,-4.588,-70.574,35.476
-0.396,-0.708,0.197,-4.715,-64.507,32.494
-0.406,-0.711,0.196,-4.553,-59.322,30.428
-0.418,-0.715,0.194,-4.223,-56.081,29.161
-0.431,-0.717,0.192,-3.779,-54.507,28.457
-0.445,-0.718,0.190,-3.403,-53.888,28.037
-0.458,-0.716,0.189,-3.155,-54.203,27.765
-0.469,-0.714,0.189,-3.033,-55.298,27.555
-0.477,-0.711,0.190,-3.015,-56.183,27.340
-0.484,-0.708,0.192,-3.045,-56.466,27.087
-0.490,-0.705,0.195,-3.057,-56.110,26.777
-0.495,-0.702,0.198,-3.046,-55.197,26.398
-0.501,-0.699,0.200,-3.039,-53.904,25.910
-0.506,-0.695,0.202,-3.058,-52.213,25.356
-0.512,-0.691,0.203,-3.132,-50.233,24.728
-0.518,-0.688,0.204,-3.193,-48.182,24.037
-0.524,-0.686,0.205,-3.186,-46.149,23.319
-0.531,-0.684,0.205,-3.133,-44.114,22.613
-0.537,-0.683,0.206,-3.028,-41.956,21.921
-0.543,-0.682,0.207,-2.890,-39.622,21.216
-0.548,-0.680,0.208,-2.717,-37.084,20.488
-0.553,-0.679,0.209,-2.536,-34.225,19.717
-0.558,-0.677,0.210,-2.375,-31.151,18.897
-0.563,-0.675,0.211,-2.250,-27.974,18.040
-0.569,-0.674,0.211,-2.177,-24.836,17.166
-0.574,-0.672,0.210,-2.150,-21.922,16.315
-0.580,-0.671,0.209,-2.164,-19.406,15.532
-0.586,-0.670,0.208,-2.266,-17.364,14.821
-0.593,-0.669,0.206,-2.435,-15.944,14.199
-0.599,-0.668,0.205,-2.653,-14.981,13.674
-0.605,-0.667,0.204,-2.929,-14.422,13.274
-0.611,-0.667,0.204,-3.212,-14.157,12.958
-0.616,-0.666,0.204,-3.516,-14.150,12.706
-0.621,-0.666,0.204,-3.793,-14.250,12.519
-0.626,-0.666,0.205,-4.010,-14.419,12.372
-0.630,-0.666,0.206,-4.176,-14.577,12.241
-0.634,-0.666,0.207,-4.269,-14.672,12.120
-0.637,-0.666,0.208,-4.285,-14.685,11.987
-0.641,-0.665,0.209,-4.283,-14.595,11.840
-0.644,-0.664,0.210,-4.277,-14.352,11.668
-0.647,-0.663,0.210,-4.299,-14.013,11.445
-0.650,-0.662,0.211,-4.328,-13.591,11.186
-0.654,-0.661,0.211,-4.336,-13.116,10.882
-0.657,-0.660,0.212,-4.342,-12.582,10.548
-0.659,-0.659,0.212,-4.334,-11.960,10.204
-0.662,-0.659,0.213,-4.309,-11.258,9.862
-0.665,-0.658,0.213,-4.269,-10.454,9.523
-0.667,-0.657,0.213,-4.228,-9.617,9.196
-0.670,-0.656,0.213,-4.176,-8.809,8.882
-0.673,-0.655,0.213,-4.130,-8.084,8.576
-0.676,-0.654,0.213,-4.089,-7.443,8.283
-0.679,-0.653,0.212,-4.053,-6.878,8.012
-0.681,-0.652,0.211,-3.991,-6.372,7.757
-0.683,-0.651,0.210,-3.916,-5.912,7.513
-0.686,-0.651,0.210,-3.843,-5.467,7.269
-0.688,-0.650,0.209,-3.750,-5.002,7.026
-0.690,-0.650,0.208,-3.629,-4.474,6.779
-0.692,-0.650,0.207,-3.488,-3.862,6.521
-0.695,-0.649,0.205,-3.320,-3.150,6.237
-0.697,-0.649,0.204,-3.140,-2.330,5.932
-0.699,-0.648,0.203,-2.951,-1.363,5.588
-0.702,-0.648,0.202,-2.752,-0.295,5.201
-0.704,-0.647,0.201,-2.521,0.864,4.793
-0.706,-0.647,0.201,-2.254,2.152,4.380
-0.707,-0.647,0.201,-1.934,3.521,3.980
-0.709,-0.647,0.201,-1.522,4.971,3.623
-0.710,-0.648,0.202,-1.024,6.499,3.311
-0.711,-0.648,0.203,-0.424,8.109,3.041
-0.712,-0.648,0.205,0.276,9.724,2.810
-0.714,-0.648,0.207,1.112,11.322,2.617

0.466,-1.062,-0.386,-0.690,-4.514,9.593
0.476,-1.060,-0.387,-2.433,-20.580,16.813
0.484,-1.057,-0.388,-4.098,-36.232,24.140
0.491,-1.053,-0.390,-5.640,-51.217,31.334
0.495,-1.050,-0.393,-6.870,-65.757,38.177
0.497,-1.046,-0.393,-7.561,-80.278,44.587
0.496,-1.042,-0.393,-7.975,-94.763,50.542
0.493,-1.040,-0.391,-8.331,-109.007,56.219
0.489,-1.038,-0.387,-8.609,-122.846,61.625
0.482,-1.037,-0.381,-9.010,-135.990,66.654
0.473,-1.036,-0.375,-9.409,-147.984,71.422
0.461,-1.035,-0.366,-9.678,-159.146,75.813
0.447,-1.034,-0.355,-9.827,-169.362,79.930
0.431,-1.030,-0.344,-10.011,-178.410,83.895
0.413,-1.023,-0.332,-10.186,-186.247,87.476
0.391,-1.015,-0.320,-10.447,-192.825,90.357
0.369,-1.007,-0.305,-10.905,-198.677,91.330
0.344,-0.999,-0.286,-11.567,-204.290,92.751
0.318,-0.995,-0.263,-12.282,-209.590,93.774
0.291,-0.993,-0.237,-12.860,-213.378,94.754
0.265,-0.995,-0.210,-13.022,-215.170,96.113
0.240,-0.999,-0.183,-12.836,-214.822,97.934
0.215,-1.003,-0.155,-12.385,-212.099,100.283
0.189,-1.003,-0.128,-11.728,-208.383,103.007
0.162,-0.997,-0.101,-11.037,-204.178,105.807
0.132,-0.980,-0.075,-10.747,-199.824,108.029
0.100,-0.957,-0.050,-11.019,-195.576,109.242
0.064,-0.929,-0.023,-12.244,-191.788,109.208
0.027,-0.900,0.005,-15.141,-188.682,107.797
-0.009,-0.875,0.035,-18.911,-186.244,105.821
-0.042,-0.855,0.066,-22.954,-184.217,103.559
-0.070,-0.841,0.097,-26.417,-181.750,101.185
-0.095,-0.831,0.127,-28.894,-178.825,98.850
-0.118,-0.819,0.157,-30.540,-174.837,96.689
-0.140,-0.802,0.187,-31.896,-170.619,94.817
-0.163,-0.782,0.214,-33.134,-166.489,93.073
-0.187,-0.760,0.239,-34.184,-162.697,91.261
-0.210,-0.737,0.258,-35.128,-157.675,89.269
-0.232,-0.719,0.272,-35.993,-151.248,87.159
-0.253,-0.706,0.282,-36.608,-143.537,84.240
-0.270,-0.699,0.288,-36.980,-134.514,80.928
-0.285,-0.698,0.290,-36.935,-123.676,77.614
-0.300,-0.701,0.291,-36.403,-112.524,74.645
-0.316,-0.706,0.292,-35.401,-101.980,71.838
-0.332,-0.711,0.291,-33.577,-92.696,68.917
-0.350,-0.717,0.290,-30.877,-85.119,65.804
-0.365,-0.719,0.290,-27.762,-78.239,62.660
-0.379,-0.718,0.289,-25.118,-71.390,59.644
-0.393,-0.716,0.288,-22.956,-64.141,56.704
-0.407,-0.714,0.285,-21.105,-56.848,53.766
-0.421,-0.711,0.282,-19.360,-49.711,50.937
-0.435,-0.708,0.276,-17.626,-42.902,48.287
-0.448,-0.705,0.268,-16.002,-36.854,45.869
-0.460,-0.703,0.260,-14.543,-31.914,43.852
-0.472,-0.701,0.252,-13.503,-28.461,42.176
-0.484,-0.698,0.244,-12.868,-26.903,40.837
-0.497,-0.696,0.238,-12.556,-26.459,39.798
-0.509,-0.695,0.232,-12.575,-26.724,38.975
-0.520,-0.693,0.227,-12.829,-27.646,38.239
-0.529,-0.693,0.224,-13.189,-28.946,37.594
-0.536,-0.693,0.222,-13.513,-30.027,37.061
-0.542,-0.694,0.220,-13.664,-30.644,36.604
-0.547,-0.695,0.218,-13.580,-30.653,36.197
-0.551,-0.696,0.216,-13.297,-30.333,35.812
-0.555,-0.696,0.215,-12.856,-29.678,35.395
-0.559,-0.695,0.213,-12.366,-28.735,34.932
-0.564,-0.692,0.210,-11.898,-27.581,34.402
-0.569,-0.689,0.208,-11.509,-26.390,33.771
-0.574,-0.686,0.205,-11.221,-25.189,33.085
-0.579,-0.682,0.203,-11.031,-23.963,32.325
-0.584,-0.679,0.200,-10.899,-22.703,31.469
-0.588,-0.676,0.198,-10.817,-21.374,30.485
-0.592,-0.674,0.196,-10.732,-19.929,29.435
-0.595,-0.672,0.193,-10.634,-18.265,28.357
-0.599,-0.670,0.191,-10.517,-16.489,27.287
-0.603,-0.669,0.188,-10.361,-14.692,26.244
-0.607,-0.668,0.186,-10.143,-13.034,25.255
-0.611,-0.668,0.184,-9.873,-11.621,24.328
-0.616,-0.667,0.182,-9.608,-10.453,23.450
-0.621,-0.666,0.180,-9.376,-9.463,22.613
-0.625,-0.666,0.179,-9.190,-8.654,21.817
-0.630,-0.666,0.178,-9.036,-7.973,21.052
-0.634,-0.665,0.177,-8.911,-7.399,20.303
-0.638,-0.666,0.176,-8.821,-6.932,19.559
-0.642,-0.666,0.175,-8.753,-6.510,18.851
-0.646,-0.667,0.173,-8.666,-6.094,18.209
-0.650,-0.669,0.171,-8.510,-5.686,17.627
-0.655,-0.670,0.169,-8.308,-5.303,17.092
-0.659,-0.671,0.167,-8.064,-4.915,16.625
-0.663,-0.672,0.166,-7.801,-4.532,16.207
-0.667,-0.673,0.164,-7.524,-4.197,15.823
-0.671,-0.674,0.162,-7.238,-3.934,15.479
-0.675,-0.674,0.161,-6.939,-3.747,15.186
-0.678,-0.675,0.161,-6.629,-3.627,14.929
-0.681,-0.676,0.161,-6.300,-3.549,14.701
-0.684,-0.676,0.161,-5.952,-3.480,14.491
-0.686,-0.677,0.162,-5.570,-3.402,14.294
-0.689,-0.677,0.164,-5.149,-3.299,14.108
-0.691,-0.677,0.166,-4.668,-3.159,13.931
-0.693,-0.678,0.168,-4.071,-2.959,13.766
-0.696,-0.678,0.170,-3.403,-2.675,13.606
-0.698,-0.678,0.172,-2.639,-2.229,13.443
-0.700,-0.677,0.173,-1.749,-1.649,13.276
-0.702,-0.676,0.174,-0.692,-0.965,13.097
-0.705,-0.674,0.175,0.440,-0.193,12.904
-0.707,-0.672,0.177,1.579,0.634,12.673
-0.710,-0.669,0.178,2.672,1.429,12.383
-0.713,-0.665,0.180,3.666,2.184,11.981
-0.715,-0.660,0.183,4.546,2.914,11.480
-0.718,-0.656,0.185,5.353,3.600,10.848
-0.721,-0.651,0.189,6.104,4.261,10.076
-0.724,-0.648,0.192,6.817,4.975,9.160
-0.726,-0.645,0.196,7.525,5.867,8.108
-0.728,-0.643,0.199,8.326,7.029,6.982
-0.730,-0.642,0.201,9.261,8.601,5.808
-0.732,-0.641,0.204,10.362,10.437,4.608
-0.734,-0.640,0.206,11.632,12.513,3.403
-0.737,-0.638,0.207,13.034,14.756,2.181
-0.740,-0.636,0.208,14.444,17.010,0.928

-0.756,-0.199,0.957,11.453,20.906,1.256
-0.755,-0.212,0.957,10.859,27.044,1.633
-0.758,-0.225,0.952,12.383,34.757,1.853
-0.764,-0.241,0.945,15.985,43.105,1.789
-0.771,-0.258,0.932,21.207,51.236,1.448
-0.775,-0.272,0.915,26.568,58.356,0.958
-0.779,-0.282,0.895,30.697,64.208,0.381
-0.784,-0.291,0.872,33.004,68.629,-0.437
-0.789,-0.299,0.848,34.492,71.586,-1.436
-0.795,-0.306,0.823,35.483,72.990,-2.613
-0.800,-0.311,0.798,36.040,73.715,-4.064
-0.804,-0.315,0.774,36.055,74.131,-5.969
-0.807,-0.319,0.751,35.727,74.533,-8.116
-0.808,-0.324,0.730,35.177,75.103,-10.213
-0.809,-0.332,0.709,34.521,75.715,-11.932
-0.811,-0.342,0.688,33.863,75.934,-13.082
-0.813,-0.354,0.668,33.292,75.233,-13.328
-0.818,-0.365,0.648,32.720,73.467,-13.080
-0.823,-0.375,0.627,32.071,70.740,-12.518
-0.829,-0.382,0.608,31.204,65.132,-11.696
-0.834,-0.388,0.589,29.892,56.952,-10.735
-0.836,-0.394,0.573,28.078,47.838,-9.778
-0.835,-0.401,0.558,26.156,39.780,-8.861
-0.832,-0.408,0.544,24.478,33.696,-7.997
-0.828,-0.415,0.531,23.223,29.602,-7.176
-0.824,-0.422,0.519,22.517,27.107,-6.427
-0.820,-0.427,0.508,22.055,25.671,-5.777
-0.817,-0.430,0.497,21.665,24.728,-5.260
-0.815,-0.432,0.487,21.262,23.924,-4.903
-0.814,-0.434,0.477,20.726,23.179,-4.690
-0.813,-0.437,0.469,20.073,22.442,-4.536
-0.812,-0.440,0.460,19.388,21.717,-4.415
-0.811,-0.444,0.451,18.776,21.049,-4.298
-0.810,-0.448,0.443,18.261,20.484,-4.171
-0.808,-0.453,0.436,17.885,20.094,-4.040
-0.807,-0.458,0.428,17.594,19.930,-3.914
-0.805,-0.462,0.419,17.368,20.039,-3.805
-0.805,-0.466,0.410,17.164,20.270,-3.737
-0.805,-0.468,0.401,16.915,20.538,-3.732
-0.805,-0.471,0.392,16.585,20.733,-3.792
-0.806,-0.473,0.383,16.125,20.740,-3.909
-0.807,-0.475,0.375,15.532,20.573,-4.086
-0.807,-0.477,0.366,14.787,20.240,-4.313
-0.808,-0.480,0.358,14.003,19.780,-4.541
-0.808,-0.484,0.352,13.202,19.207,-4.774
-0.808,-0.487,0.346,12.434,18.603,-4.998
-0.808,-0.491,0.341,11.717,17.987,-5.180
-0.808,-0.495,0.336,11.060,17.383,-5.343
-0.808,-0.499,0.332,10.471,16.784,-5.499
-0.809,-0.503,0.328,9.939,16.175,-5.646
-0.810,-0.506,0.324,9.409,15.550,-5.771
-0.811,-0.509,0.321,8.871,14.908,-5.879
-0.812,-0.511,0.317,8.313,14.231,-5.964
-0.813,-0.514,0.314,7.731,13.533,-6.022
-0.814,-0.516,0.311,7.132,12.815,-6.040
-0.815,-0.518,0.308,6.543,12.081,-6.035
-0.816,-0.520,0.305,5.972,11.269,-6.001
-0.818,-0.523,0.303,5.439,10.443,-5.927
-0.819,-0.525,0.301,4.979,9.636,-5.823
-0.820,-0.528,0.299,4.641,8.882,-5.709
-0.821,-0.531,0.298,4.426,8.183,-5.604
-0.821,-0.534,0.297,4.331,7.594,-5.511
-0.822,-0.538,0.298,4.356,7.103,-5.420
-0.823,-0.540,0.298,4.561,6.740,-5.346
-0.824,-0.543,0.299,4.912,6.527,-5.292
-0.825,-0.545,0.300,5.376,6.493,-5.273
-0.826,-0.547,0.301,5.966,6.748,-5.272
-0.826,-0.549,0.301,6.679,7.180,-5.280
-0.827,-0.552,0.301,7.598,7.751,-5.297
-0.827,-0.554,0.300,8.658,8.419,-5.326
-0.828,-0.557,0.299,9.840,9.201,-5.348
-0.828,-0.559,0.297,11.127,10.041,-5.351
-0.828,-0.561,0.296,12.563,10.876,-5.326
-0.829,-0.562,0.294,14.034,11.678,-5.299
-0.829,-0.562,0.293,15.461,12.403,-5.268
-0.830,-0.562,0.293,16.772,12.973,-5.253
-0.831,-0.560,0.293,17.913,13.421,-5.279
-0.833,-0.558,0.293,18.731,13.749,-5.430
-0.834,-0.554,0.293,19.259,13.993,-5.703
-0.834,-0.551,0.294,19.558,14.184,-6.132
-0.835,-0.548,0.294,19.659,14.396,-6.749
-0.835,-0.546,0.294,19.584,14.693,-7.599
-0.835,-0.543,0.294,19.454,15.115,-8.599
-0.834,-0.542,0.293,19.325,15.787,-9.716
-0.832,-0.542,0.292,19.259,16.685,-10.907
-0.831,-0.543,0.290,19.334,17.809,-12.160
-0.829,-0.544,0.287,19.516,19.181,-13.414
-0.827,-0.545,0.284,19.829,20.848,-14.634
-0.824,-0.547,0.281,20.265,22.598,-15.843
-0.822,-0.548,0.278,20.772,24.334,-17.066
-0.821,-0.548,0.276,21.229,25.933,-18.300
-0.820,-0.548,0.274,21.527,27.359,-19.554
-0.819,-0.547,0.272,21.648,28.519,-20.858
-0.818,-0.547,0.271,21.626,29.436,-22.297
-0.817,-0.547,0.270,21.482,30.161,-23.808
-0.816,-0.549,0.265,21.301,30.782,-25.385
-0.814,-0.550,0.264,21.184,31.465,-26.992
-0.812,-0.554,0.263,21.252,32.300,-28.584
-0.808,-0.558,0.260,21.519,33.348,-30.087
-0.804,-0.562,0.258,22.004,34.785,-31.491
-0.800,-0.566,0.253,22.762,36.548,-32.748
-0.795,-0.571,0.248,23.960,38.564,-33.857
-0.790,-0.574,0.242,25.382,40.762,-34.863
-0.785,-0.577,0.237,26.942,42.833,-35.799
-0.781,-0.579,0.232,28.537,44.590,-36.797
-0.778,-0.580,0.228,29.920,46.054,-37.876
-0.775,-0.580,0.225,30.973,47.207,-39.098
-0.773,-0.579,0.223,31.634,48.145,-40.518
-0.770,-0.579,0.222,31.864,48.906,-42.243
-0.767,-0.579,0.222,31.880,49.512,-44.170
-0.764,-0.581,0.222,31.754,50.114,-46.297
-0.760,-0.583,0.223,31.543,50.845,-48.640
-0.755,-0.587,0.223,31.300,51.888,-51.028
-0.750,-0.591,0.222,31.032,53.441,-53.369
-0.743,-0.596,0.217,30.740,55.891,-55.540
-0.735,-0.600,0.209,30.589,58.704,-57.423
-0.727,-0.606,0.200,30.764,61.305,-59.030
-0.720,-0.611,0.191,31.140,63.409,-60.461
-0.714,-0.615,0.183,31.538,64.681,-61.767

-0.495,-0.818,0.602,30.450,30.578,-36.597
-0.498,-0.792,0.635,28.260,-0.015,-15.289
-0.499,-0.760,0.674,25.287,-24.344,1.311
-0.499,-0.723,0.710,22.468,-35.536,13.078
-0.498,-0.684,0.743,19.674,-38.873,19.917
-0.500,-0.641,0.773,17.246,-38.372,22.427
-0.506,-0.597,0.801,14.080,-34.197,23.473
-0.517,-0.559,0.824,10.020,-28.749,23.865
-0.531,-0.529,0.841,5.137,-22.583,23.978
-0.546,-0.511,0.852,0.138,-16.219,24.069
-0.558,-0.504,0.853,-3.926,-8.748,24.389
-0.566,-0.507,0.848,-6.348,-0.039,25.429
-0.573,-0.522,0.839,-6.320,9.600,26.832
-0.581,-0.541,0.827,-4.138,18.813,27.846
-0.590,-0.562,0.813,1.936,25.693,28.204
-0.597,-0.578,0.798,11.396,30.760,28.140
-0.600,-0.585,0.783,19.899,34.832,27.852
-0.602,-0.583,0.766,25.285,38.860,27.461
-0.606,-0.578,0.748,28.254,42.688,26.932
-0.612,-0.571,0.728,29.784,45.850,26.117
-0.620,-0.563,0.708,30.533,48.285,24.936
-0.627,-0.553,0.687,30.519,50.170,23.129
-0.633,-0.542,0.666,30.088,51.654,20.801
-0.638,-0.532,0.645,29.354,52.811,18.008
-0.642,-0.522,0.624,27.987,53.851,14.985
-0.646,-0.515,0.604,25.936,54.806,11.913
-0.649,-0.511,0.585,23.401,55.454,9.087
-0.653,-0.511,0.567,20.806,55.515,6.708
-0.657,-0.514,0.551,18.270,54.337,4.957
-0.662,-0.518,0.535,16.006,52.923,3.878
-0.668,-0.523,0.521,13.941,50.930,3.295
-0.675,-0.526,0.508,11.907,47.396,3.115
-0.681,-0.529,0.497,9.850,42.448,3.094
-0.686,-0.531,0.488,7.782,36.740,3.141
-0.690,-0.533,0.481,5.828,31.621,3.187
-0.693,-0.536,0.474,4.175,27.589,3.190
-0.695,-0.538,0.468,3.065,24.773,3.098
-0.698,-0.540,0.462,2.375,23.054,2.935
-0.700,-0.542,0.455,2.073,22.285,2.727
-0.703,-0.543,0.448,2.021,21.903,2.480
-0.707,-0.544,0.441,2.100,21.883,2.158
-0.711,-0.544,0.434,2.231,22.119,1.776
-0.715,-0.544,0.427,2.331,22.455,1.365
-0.720,-0.544,0.420,2.395,22.744,0.945
-0.725,-0.545,0.414,2.429,22.944,0.494
-0.729,-0.546,0.408,2.430,23.085,-0.011
-0.734,-0.548,0.402,2.391,23.226,-0.564
-0.738,-0.550,0.397,2.337,23.440,-1.133
-0.741,-0.553,0.392,2.289,23.791,-1.686
-0.745,-0.557,0.387,2.271,24.229,-2.206
-0.749,-0.561,0.382,2.312,24.698,-2.668
-0.753,-0.565,0.377,2.393,25.132,-3.039
-0.756,-0.570,0.372,2.501,25.428,-3.324
-0.759,-0.574,0.366,2.628,25.568,-3.507
-0.763,-0.578,0.360,2.789,25.506,-3.564
-0.766,-0.582,0.354,2.960,25.244,-3.528
-0.769,-0.585,0.347,3.132,24.736,-3.407
-0.771,-0.587,0.341,3.279,24.060,-3.205
-0.774,-0.589,0.335,3.386,23.250,-2.899
-0.776,-0.590,0.329,3.455,22.279,-2.537
-0.779,-0.591,0.324,3.478,21.035,-2.142
-0.781,-0.591,0.319,3.455,19.668,-1.738
-0.782,-0.592,0.315,3.396,18.259,-1.360
-0.784,-0.592,0.312,3.327,16.884,-1.021
-0.785,-0.592,0.309,3.280,15.624,-0.727
-0.786,-0.592,0.307,3.273,14.578,-0.488
-0.787,-0.591,0.306,3.311,13.749,-0.301
-0.788,-0.590,0.305,3.444,13.136,-0.170
-0.789,-0.589,0.304,3.643,12.653,-0.090
-0.790,-0.587,0.303,3.910,12.312,-0.064
-0.791,-0.585,0.303,4.212,12.168,-0.102
-0.792,-0.584,0.302,4.553,12.199,-0.177
-0.792,-0.583,0.301,4.997,12.382,-0.272
-0.793,-0.583,0.300,5.584,12.699,-0.367
-0.793,-0.583,0.300,6.319,13.175,-0.452
-0.794,-0.583,0.300,7.174,13.785,-0.522
-0.795,-0.581,0.299,8.182,14.545,-0.559
-0.797,-0.579,0.300,9.221,15.416,-0.602
-0.799,-0.576,0.300,10.233,16.295,-0.660
-0.801,-0.573,0.300,11.175,17.138,-0.772
-0.803,-0.568,0.301,11.939,17.901,-0.958
-0.806,-0.563,0.302,12.524,18.568,-1.242
-0.809,-0.558,0.303,12.908,19.240,-1.618
-0.810,-0.553,0.303,13.114,19.993,-2.119
-0.812,-0.548,0.304,13.149,20.928,-2.837
-0.812,-0.544,0.303,13.136,22.114,-3.703
-0.812,-0.541,0.302,13.166,23.598,-4.694
-0.811,-0.540,0.301,13.299,25.503,-5.768
-0.811,-0.539,0.298,13.539,27.747,-6.879
-0.810,-0.538,0.296,13.907,30.313,-8.006
-0.810,-0.538,0.294,14.296,33.106,-9.157
-0.810,-0.537,0.291,14.633,36.114,-10.309
-0.810,-0.536,0.287,14.860,39.133,-11.441
-0.810,-0.535,0.283,14.904,42.123,-12.601
-0.810,-0.535,0.278,14.805,44.982,-13.756
-0.811,-0.534,0.272,14.607,47.694,-14.883
-0.812,-0.533,0.266,14.295,50.140,-15.995
-0.814,-0.532,0.260,13.759,52.284,-17.089
-0.815,-0.530,0.253,13.007,54.024,-18.170
-0.817,-0.529,0.247,12.051,55.389,-19.258
-0.817,-0.528,0.240,10.971,56.322,-20.383
-0.818,-0.529,0.233,9.767,57.073,-21.531
-0.818,-0.529,0.225,8.334,57.797,-22.662
-0.818,-0.529,0.219,6.694,58.500,-23.789
-0.817,-0.530,0.211,4.917,59.302,-24.899
-0.817,-0.532,0.204,3.088,60.234,-25.997
-0.816,-0.534,0.197,1.204,61.340,-27.028
-0.815,-0.536,0.189,-0.791,62.694,-27.979
-0.813,-0.539,0.180,-2.778,64.315,-28.870
-0.812,-0.543,0.171,-4.723,65.940,-29.734
-0.810,-0.546,0.162,-6.663,67.397,-30.626
-0.810,-0.550,0.153,-8.679,68.577,-31.578
-0.809,-0.553,0.146,-10.833,69.471,-32.601
-0.809,-0.557,0.140,-13.103,70.184,-33.667
-0.808,-0.561,0.134,-15.542,70.839,-34.746
-0.807,-0.565,0.128,-17.991,71.692,-35.814
-0.804,-0.570,0.120,-20.359,72.748,-36.828
-0.800,-0.575,0.112,-22.899,73.969,-37.804
-0.796,-0.581,0.102,-25.417,75.231,-38.768

-0.971,-0.383,0.581,-27.152,48.020,-34.944
-0.982,-0.377,0.608,-28.902,23.880,-32.041
-0.991,-0.375,0.636,-30.143,4.887,-29.642
-0.999,-0.373,0.664,-30.732,-8.716,-27.407
-1.006,-0.368,0.690,-30.771,-17.557,-25.595
-1.011,-0.361,0.715,-30.749,-21.938,-24.484
-1.014,-0.353,0.736,-30.892,-23.755,-23.938
-1.015,-0.348,0.754,-31.041,-23.902,-23.922
-1.016,-0.345,0.762,-30.970,-22.463,-24.383
-1.015,-0.345,0.766,-30.532,-19.401,-25.272
-1.014,-0.348,0.763,-29.654,-14.871,-26.390
-1.012,-0.353,0.755,-28.129,-9.532,-27.479
-1.009,-0.360,0.743,-26.014,-3.591,-28.501
-1.006,-0.366,0.726,-23.437,2.345,-29.304
-1.003,-0.373,0.708,-20.483,8.493,-29.912
-0.999,-0.380,0.687,-17.561,14.059,-30.338
-0.995,-0.386,0.664,-14.906,19.420,-30.559
-0.991,-0.392,0.642,-12.789,24.752,-30.411
-0.988,-0.398,0.619,-11.016,29.224,-29.974
-0.990,-0.404,0.594,-9.631,30.138,-29.368
-0.999,-0.406,0.568,-8.861,28.340,-28.673
-1.008,-0.405,0.543,-8.727,20.793,-28.062
-1.013,-0.405,0.524,-9.063,8.607,-27.472
-1.010,-0.405,0.510,-9.721,-1.631,-26.805
-1.003,-0.408,0.499,-10.095,-7.880,-26.074
-0.995,-0.411,0.488,-10.021,-9.872,-25.381
-0.987,-0.413,0.478,-9.686,-10.645,-24.730
-0.981,-0.414,0.468,-9.234,-10.660,-24.148
-0.975,-0.413,0.455,-8.771,-10.361,-23.661
-0.971,-0.414,0.442,-8.324,-10.005,-23.267
-0.968,-0.414,0.430,-7.866,-9.709,-22.934
-0.965,-0.416,0.419,-7.374,-9.416,-22.655
-0.961,-0.419,0.409,-6.846,-8.966,-22.369
-0.956,-0.422,0.400,-6.315,-8.029,-22.064
-0.952,-0.424,0.391,-5.738,-6.625,-21.772
-0.948,-0.426,0.381,-5.176,-4.824,-21.509
-0.944,-0.427,0.371,-4.721,-2.838,-21.269
-0.942,-0.427,0.361,-4.402,-0.953,-21.028
-0.940,-0.428,0.351,-4.190,0.595,-20.739
-0.939,-0.430,0.341,-3.990,1.666,-20.379
-0.937,-0.432,0.331,-3.779,2.135,-19.922
-0.936,-0.434,0.320,-3.522,2.196,-19.252
-0.934,-0.437,0.310,-3.169,1.907,-18.363
-0.934,-0.439,0.300,-2.776,0.988,-17.316
-0.933,-0.440,0.291,-2.375,-0.313,-16.176
-0.932,-0.442,0.284,-2.037,-1.692,-15.022
-0.930,-0.443,0.276,-1.764,-2.990,-13.949
-0.928,-0.444,0.270,-1.580,-3.980,-12.981
-0.926,-0.444,0.264,-1.505,-4.692,-12.180
-0.924,-0.445,0.258,-1.523,-5.164,-11.497
-0.922,-0.445,0.253,-1.605,-5.428,-10.915
-0.920,-0.446,0.249,-1.692,-5.557,-10.412
-0.919,-0.447,0.245,-1.745,-5.581,-9.945
-0.917,-0.448,0.242,-1.762,-5.455,-9.512
-0.916,-0.449,0.239,-1.726,-5.226,-9.106
-0.916,-0.450,0.236,-1.656,-4.891,-8.768
-0.915,-0.450,0.234,-1.579,-4.461,-8.481
-0.914,-0.451,0.232,-1.498,-3.877,-8.241
-0.913,-0.451,0.229,-1.414,-3.181,-8.060
-0.913,-0.452,0.227,-1.303,-2.369,-7.913
-0.912,-0.454,0.224,-1.160,-1.376,-7.799
-0.912,-0.455,0.222,-0.997,-0.262,-7.700
-0.911,-0.457,0.219,-0.801,0.947,-7.612
-0.911,-0.458,0.216,-0.593,2.174,-7.534
-0.911,-0.459,0.214,-0.385,3.334,-7.476
-0.911,-0.460,0.211,-0.177,4.381,-7.423
-0.911,-0.461,0.208,0.038,5.311,-7.373
-0.910,-0.462,0.204,0.274,6.100,-7.315
-0.910,-0.464,0.201,0.548,6.687,-7.240
-0.910,-0.465,0.198,0.889,7.124,-7.126
-0.910,-0.467,0.195,1.385,7.436,-6.925
-0.910,-0.469,0.193,1.968,7.626,-6.645
-0.910,-0.470,0.191,2.613,7.686,-6.293
-0.911,-0.470,0.188,3.228,7.658,-5.899
-0.912,-0.469,0.186,3.813,7.558,-5.485
-0.912,-0.468,0.185,4.315,7.413,-5.091
-0.913,-0.467,0.183,4.762,7.260,-4.729
-0.913,-0.465,0.182,5.161,7.143,-4.414
-0.913,-0.463,0.181,5.521,7.100,-4.176
-0.913,-0.461,0.181,5.856,7.163,-4.031
-0.913,-0.460,0.181,6.228,7.366,-3.952
-0.913,-0.459,0.181,6.715,7.806,-3.918
-0.913,-0.458,0.181,7.368,8.439,-3.914
-0.913,-0.458,0.180,8.199,9.285,-3.928
-0.912,-0.458,0.179,9.204,10.350,-3.956
-0.912,-0.457,0.174,10.210,11.630,-4.003
-0.912,-0.456,0.172,11.107,12.943,-4.099
-0.912,-0.454,0.169,11.785,14.187,-4.281
-0.912,-0.453,0.166,12.284,15.291,-4.534
-0.912,-0.453,0.163,12.685,16.261,-4.817
-0.912,-0.453,0.160,13.036,17.159,-5.078
-0.912,-0.453,0.157,13.367,18.027,-5.323
-0.912,-0.454,0.155,13.673,18.826,-5.560
-0.912,-0.455,0.152,13.964,19.588,-5.774
-0.911,-0.456,0.148,14.260,20.303,-5.967
-0.911,-0.457,0.144,14.557,20.994,-6.147
-0.910,-0.458,0.140,14.795,21.666,-6.340
-0.910,-0.457,0.136,14.922,22.328,-6.567
-0.909,-0.457,0.131,14.912,22.982,-6.842
-0.907,-0.456,0.126,14.790,23.613,-7.177
-0.906,-0.456,0.121,14.573,24.198,-7.560
-0.904,-0.457,0.117,14.330,24.747,-7.958
-0.902,-0.458,0.112,14.075,25.284,-8.376
-0.900,-0.459,0.107,13.873,25.806,-8.793
-0.898,-0.461,0.102,13.761,26.332,-9.174
-0.896,-0.464,0.097,13.815,26.845,-9.506
-0.895,-0.466,0.092,13.997,27.315,-9.787
-0.893,-0.468,0.088,14.262,27.736,-10.011
-0.892,-0.469,0.084,14.515,28.108,-10.225
-0.890,-0.470,0.080,14.670,28.412,-10.466
-0.889,-0.470,0.076,14.708,28.647,-10.719
-0.888,-0.470,0.072,14.624,28.803,-10.989
-0.886,-0.470,0.068,14.422,28.937,-11.263
-0.885,-0.471,0.063,14.115,29.039,-11.531
-0.883,-0.473,0.058,13.778,29.119,-11.762
-0.881,-0.475,0.053,13.439,29.180,-11.935
-0.880,-0.477,0.049,13.106,29.242,-12.068
-0.878,-0.479,0.045,12.781,29.312,-12.150
-0.876,-0.481,0.040,12.492,29.397,-12.200

-0.907,-0.398,0.615,11.112,29.263,-14.298
-0.915,-0.402,0.611,9.596,29.167,-15.930
-0.923,-0.408,0.603,7.894,29.008,-17.205
-0.932,-0.416,0.590,6.063,28.760,-18.126
-0.941,-0.426,0.576,4.249,27.996,-18.717
-0.948,-0.438,0.560,2.652,27.521,-19.030
-0.954,-0.451,0.547,1.404,26.906,-19.146
-0.960,-0.464,0.535,0.651,26.174,-19.007
-0.964,-0.475,0.524,0.177,25.306,-18.717
-0.967,-0.484,0.516,-0.100,24.286,-18.329
-0.968,-0.491,0.508,-0.348,23.177,-17.789
-0.969,-0.495,0.499,-0.664,22.101,-17.080
-0.969,-0.498,0.490,-1.011,21.052,-16.216
-0.968,-0.500,0.480,-1.460,20.124,-15.199
-0.967,-0.499,0.469,-2.109,19.373,-14.088
-0.964,-0.497,0.460,-3.151,18.786,-12.929
-0.961,-0.496,0.453,-4.333,18.310,-11.804
-0.959,-0.497,0.447,-5.405,17.893,-10.720
-0.956,-0.503,0.442,-5.842,17.511,-9.706
-0.952,-0.509,0.436,-5.788,17.125,-8.816
-0.948,-0.514,0.429,-5.400,16.744,-8.026
-0.944,-0.518,0.421,-4.726,16.392,-7.303
-0.941,-0.519,0.413,-3.946,16.027,-6.618
-0.937,-0.518,0.403,-3.292,15.643,-5.965
-0.934,-0.516,0.394,-2.901,15.218,-5.339
-0.931,-0.515,0.384,-2.794,14.776,-4.721
-0.928,-0.514,0.374,-3.034,14.332,-4.092
-0.925,-0.516,0.364,-3.441,13.895,-3.472
-0.922,-0.519,0.356,-3.852,13.467,-2.855
-0.919,-0.524,0.349,-4.112,13.064,-2.205
-0.916,-0.529,0.342,-4.117,12.665,-1.589
-0.913,-0.533,0.335,-3.976,12.277,-1.015
-0.910,-0.537,0.329,-3.738,11.908,-0.497
-0.907,-0.539,0.322,-3.405,11.557,-0.032
-0.903,-0.540,0.315,-3.077,11.223,0.392
-0.900,-0.540,0.308,-2.814,10.908,0.768
-0.897,-0.539,0.300,-2.669,10.601,1.117
-0.894,-0.538,0.292,-2.764,10.280,1.414
-0.891,-0.537,0.285,-3.091,9.926,1.654
-0.888,-0.536,0.277,-3.608,9.531,1.856
-0.885,-0.538,0.269,-4.178,9.140,2.018
-0.882,-0.541,0.263,-4.673,8.735,2.160
-0.879,-0.545,0.256,-4.889,8.337,2.284
-0.877,-0.550,0.250,-4.864,7.951,2.386
-0.874,-0.554,0.244,-4.670,7.591,2.472
-0.872,-0.557,0.239,-4.385,7.235,2.545
-0.869,-0.558,0.233,-4.159,6.872,2.621
-0.867,-0.557,0.227,-4.047,6.503,2.692
-0.864,-0.557,0.222,-4.104,6.103,2.748
-0.862,-0.555,0.217,-4.346,5.693,2.783
-0.859,-0.555,0.212,-4.833,5.277,2.798
-0.857,-0.555,0.208,-5.375,4.884,2.775
-0.854,-0.556,0.203,-5.858,4.546,2.709
-0.851,-0.557,0.199,-6.199,4.257,2.612
-0.848,-0.559,0.195,-6.377,4.019,2.453
-0.845,-0.561,0.191,-6.357,3.823,2.277
-0.842,-0.562,0.188,-6.259,3.647,2.085
-0.840,-0.562,0.185,-6.156,3.492,1.871
-0.838,-0.562,0.182,-6.110,3.358,1.672
-0.835,-0.563,0.178,-6.132,3.230,1.496
-0.834,-0.563,0.175,-6.272,3.084,1.315
-0.833,-0.564,0.172,-6.527,2.926,1.139
-0.831,-0.564,0.170,-6.931,2.752,0.986
-0.830,-0.565,0.167,-7.458,2.558,0.843
-0.829,-0.567,0.164,-8.032,2.361,0.702
-0.828,-0.570,0.162,-8.492,2.186,0.548
-0.827,-0.572,0.159,-8.743,2.056,0.393
-0.826,-0.575,0.157,-8.783,1.979,0.246
-0.825,-0.577,0.155,-8.655,1.950,0.091
-0.824,-0.578,0.153,-8.415,1.952,-0.076
-0.824,-0.578,0.151,-8.166,1.958,-0.262
-0.824,-0.578,0.149,-7.950,1.973,-0.448
-0.824,-0.577,0.147,-7.789,1.985,-0.629
-0.825,-0.576,0.146,-7.763,2.000,-0.793
-0.825,-0.575,0.145,-7.823,1.989,-0.940
-0.825,-0.576,0.145,-7.906,1.965,-1.071
-0.825,-0.578,0.145,-7.912,1.942,-1.176
-0.826,-0.581,0.144,-7.819,1.933,-1.267
-0.826,-0.583,0.144,-7.650,1.947,-1.338
-0.827,-0.584,0.144,-7.427,1.983,-1.388
-0.828,-0.586,0.144,-7.119,2.033,-1.412
-0.830,-0.586,0.144,-6.764,2.101,-1.434
-0.831,-0.586,0.145,-6.391,2.195,-1.449
-0.833,-0.585,0.147,-6.002,2.288,-1.464
-0.835,-0.584,0.149,-5.640,2.381,-1.517
-0.837,-0.584,0.151,-5.310,2.475,-1.600
-0.840,-0.583,0.153,-4.967,2.600,-1.707
-0.842,-0.582,0.155,-4.601,2.760,-1.835
-0.844,-0.581,0.158,-4.202,2.949,-2.019
-0.846,-0.580,0.159,-3.788,3.204,-2.235
-0.848,-0.579,0.160,-3.316,3.509,-2.472
-0.849,-0.578,0.161,-2.787,3.876,-2.740
-0.851,-0.578,0.161,-2.138,4.339,-3.030
-0.852,-0.578,0.163,-1.406,4.830,-3.333
-0.854,-0.580,0.163,-0.518,5.343,-3.649
-0.855,-0.582,0.162,0.519,5.870,-3.978
-0.857,-0.583,0.161,1.594,6.406,-4.293
-0.858,-0.583,0.160,2.542,6.938,-4.595
-0.859,-0.582,0.159,3.252,7.401,-4.905
-0.860,-0.581,0.157,3.741,7.823,-5.222
-0.861,-0.580,0.156,4.012,8.235,-5.572
-0.861,-0.579,0.153,4.166,8.681,-5.923
-0.862,-0.577,0.151,4.229,9.233,-6.275
-0.863,-0.575,0.151,4.232,9.900,-6.675
-0.863,-0.573,0.152,4.257,10.622,-7.114
-0.864,-0.575,0.155,4.468,11.459,-7.583
-0.863,-0.579,0.159,5.042,12.364,-8.106
-0.864,-0.583,0.161,6.183,13.288,-8.678
-0.864,-0.588,0.161,8.290,14.280,-9.330
-0.863,-0.590,0.159,10.759,15.371,-10.041
-0.862,-0.589,0.157,13.098,16.578,-10.788
-0.861,-0.585,0.153,14.922,17.837,-11.561
-0.860,-0.582,0.148,16.139,19.146,-12.363
-0.859,-0.578,0.144,16.635,20.560,-13.201
-0.858,-0.575,0.143,16.709,22.031,-14.043
-0.858,-0.573,0.145,16.574,23.464,-14.927
-0.856,-0.574,0.149,16.378,24.834,-15.881
-0.854,-0.581,0.152,16.495,26.233,-16.964
-0.852,-0.590,0.155,17.275,27.743,-18.044

-0.799,-0.770,0.400,14.354,24.395,-18.905
-0.813,-0.772,0.429,11.360,21.644,-19.531
-0.828,-0.769,0.457,8.054,20.018,-19.843
-0.843,-0.761,0.484,3.836,19.081,-20.003
-0.858,-0.752,0.509,-0.820,18.609,-20.033
-0.871,-0.743,0.530,-5.726,18.525,-19.968
-0.882,-0.734,0.544,-10.657,18.851,-19.801
-0.891,-0.729,0.553,-15.334,19.630,-19.586
-0.899,-0.727,0.558,-19.933,20.749,-19.337
-0.906,-0.729,0.557,-24.167,22.153,-19.068
-0.913,-0.735,0.552,-27.600,23.496,-18.835
-0.918,-0.747,0.544,-28.843,24.565,-18.732
-0.921,-0.762,0.532,-29.916,25.273,-18.728
-0.923,-0.777,0.514,-30.269,25.624,-18.751
-0.921,-0.792,0.494,-30.093,25.786,-18.711
-0.917,-0.804,0.471,-29.476,25.728,-18.539
-0.915,-0.815,0.448,-28.811,25.157,-18.338
-0.914,-0.821,0.428,-28.356,24.060,-18.045
-0.913,-0.825,0.408,-28.341,22.176,-17.641
-0.910,-0.829,0.389,-29.029,19.537,-17.174
-0.906,-0.832,0.371,-30.121,16.071,-16.653
-0.900,-0.835,0.354,-31.390,12.223,-16.128
-0.893,-0.837,0.337,-32.590,8.310,-15.607
-0.885,-0.838,0.320,-33.562,4.689,-15.108
-0.875,-0.839,0.305,-34.215,1.536,-14.665
-0.865,-0.840,0.292,-34.404,-1.154,-14.289
-0.855,-0.841,0.280,-34.299,-3.419,-13.928
-0.844,-0.842,0.270,-33.901,-5.293,-13.597
-0.835,-0.843,0.260,-33.266,-6.943,-13.317
-0.825,-0.843,0.250,-32.455,-8.370,-13.049
-0.816,-0.842,0.240,-31.628,-9.587,-12.768
-0.808,-0.839,0.230,-30.889,-10.771,-12.483
-0.800,-0.834,0.221,-30.350,-11.970,-12.200
-0.794,-0.830,0.211,-30.197,-13.187,-11.930
-0.788,-0.826,0.201,-30.328,-14.414,-11.672
-0.781,-0.823,0.190,-30.600,-15.603,-11.425
-0.775,-0.822,0.179,-30.838,-16.727,-11.209
-0.768,-0.821,0.168,-30.936,-17.675,-11.035
-0.761,-0.820,0.158,-30.887,-18.456,-10.921
-0.754,-0.819,0.148,-30.613,-19.031,-10.853
-0.747,-0.817,0.140,-30.215,-19.450,-10.822
-0.741,-0.815,0.133,-29.727,-19.712,-10.810
-0.734,-0.813,0.126,-29.173,-19.867,-10.812
-0.728,-0.811,0.119,-28.589,-19.953,-10.817
-0.722,-0.808,0.112,-28.039,-19.970,-10.816
-0.718,-0.806,0.105,-27.552,-19.965,-10.797
-0.713,-0.804,0.098,-27.174,-19.973,-10.759
-0.710,-0.802,0.091,-26.894,-20.022,-10.722
-0.707,-0.800,0.084,-26.710,-20.096,-10.683
-0.705,-0.798,0.076,-26.596,-20.179,-10.639
-0.703,-0.797,0.069,-26.472,-20.255,-10.605
-0.701,-0.796,0.062,-26.284,-20.252,-10.594
-0.698,-0.796,0.056,-26.031,-20.177,-10.608
-0.696,-0.796,0.051,-25.680,-20.012,-10.637
-0.694,-0.796,0.047,-25.232,-19.773,-10.661
-0.692,-0.796,0.044,-24.710,-19.463,-10.674
-0.690,-0.795,0.042,-24.168,-19.125,-10.663
-0.689,-0.794,0.040,-23.646,-18.764,-10.629
-0.688,-0.793,0.037,-23.138,-18.356,-10.577
-0.688,-0.792,0.034,-22.645,-17.895,-10.485
-0.687,-0.792,0.030,-22.165,-17.373,-10.354
-0.687,-0.792,0.027,-21.678,-16.791,-10.197
-0.687,-0.794,0.023,-21.154,-16.171,-10.017
-0.687,-0.796,0.020,-20.508,-15.549,-9.797
-0.687,-0.800,0.018,-19.629,-14.931,-9.551
-0.687,-0.805,0.016,-18.491,-14.342,-9.262
-0.687,-0.809,0.015,-17.088,-13.797,-8.895
-0.687,-0.812,0.014,-15.495,-13.298,-8.489
-0.688,-0.814,0.014,-13.896,-12.868,-8.046
-0.689,-0.815,0.014,-12.352,-12.497,-7.569
-0.690,-0.816,0.014,-10.950,-12.147,-7.073
-0.691,-0.816,0.014,-9.686,-11.796,-6.565
-0.692,-0.816,0.013,-8.528,-11.369,-6.057
-0.693,-0.816,0.014,-7.418,-10.835,-5.559
-0.693,-0.817,0.015,-6.250,-10.196,-5.044
-0.694,-0.819,0.018,-4.938,-9.410,-4.510
-0.695,-0.822,0.020,-3.344,-8.515,-3.955
-0.696,-0.826,0.023,-1.206,-7.557,-3.328
-0.698,-0.830,0.025,1.291,-6.560,-2.662
-0.701,-0.833,0.028,4.022,-5.527,-1.955
-0.704,-0.835,0.030,6.934,-4.500,-1.187
-0.707,-0.835,0.031,9.756,-3.456,-0.379
-0.710,-0.833,0.032,12.287,-2.350,0.465
-0.713,-0.829,0.034,14.391,-1.185,1.318
-0.716,-0.825,0.036,15.935,0.002,2.180
-0.719,-0.820,0.038,17.136,1.237,3.042
-0.721,-0.817,0.040,18.028,2.482,3.864
-0.724,-0.813,0.042,18.706,3.780,4.630
-0.726,-0.810,0.043,19.290,5.154,5.361
-0.727,-0.807,0.042,19.888,6.676,6.045
-0.728,-0.804,0.041,20.607,8.382,6.694
-0.728,-0.801,0.039,21.384,10.325,7.355
-0.728,-0.797,0.037,22.113,12.435,8.004
-0.728,-0.793,0.034,22.654,14.747,8.608
-0.728,-0.788,0.032,22.983,17.110,9.163
-0.728,-0.782,0.030,23.016,19.435,9.661
-0.728,-0.776,0.028,22.666,21.714,10.090
-0.727,-0.770,0.026,22.030,23.940,10.422
-0.726,-0.765,0.024,20.974,26.111,10.657
-0.725,-0.760,0.022,19.537,28.311,10.775
-0.724,-0.756,0.022,17.936,30.335,10.777
-0.721,-0.755,0.021,16.530,32.418,10.710
-0.718,-0.756,0.020,15.445,34.498,10.575
-0.715,-0.758,0.018,14.820,36.696,10.382
-0.710,-0.760,0.015,14.678,39.146,10.165
-0.706,-0.762,0.010,15.058,41.918,9.928
-0.700,-0.763,0.004,15.941,45.143,9.680
-0.695,-0.761,-0.002,16.997,48.735,9.415
-0.690,-0.755,-0.007,17.790,52.414,9.106
-0.686,-0.749,-0.012,18.113,55.980,8.743
-0.683,-0.743,-0.016,17.931,59.157,8.292
-0.679,-0.738,-0.019,17.272,61.839,7.734
-0.675,-0.735,-0.022,15.884,64.006,6.990
-0.671,-0.735,-0.026,14.234,65.824,6.128
-0.665,-0.737,-0.030,12.744,67.478,5.171
-0.660,-0.741,-0.037,11.776,69.120,4.175
-0.654,-0.747,-0.046,11.470,70.919,3.233
-0.648,-0.753,-0.055,11.921,72.928,2.319
-0.642,-0.758,-0.064,12.991,75.206,1.423

-0.857,-0.856,-0.208,-0.128,73.409,-3.937
-0.876,-0.862,-0.207,-13.141,72.000,-8.714
-0.894,-0.872,-0.204,-24.564,71.178,-12.688
-0.913,-0.885,-0.201,-33.108,70.682,-15.944
-0.931,-0.901,-0.197,-37.770,70.421,-18.583
-0.948,-0.917,-0.192,-40.258,70.190,-20.798
-0.963,-0.932,-0.187,-41.286,69.500,-22.800
-0.977,-0.946,-0.181,-41.317,68.343,-24.699
-0.990,-0.959,-0.177,-40.574,66.841,-26.548
-1.002,-0.972,-0.174,-39.519,65.008,-28.405
-1.011,-0.983,-0.171,-37.773,62.214,-30.233
-1.017,-0.993,-0.169,-34.579,59.094,-31.443
-1.018,-1.001,-0.167,-29.807,56.004,-32.175
-1.022,-1.005,-0.165,-24.430,51.727,-33.030
-1.027,-1.001,-0.164,-20.353,46.297,-33.370
-1.030,-0.993,-0.165,-18.163,40.178,-33.390
-1.031,-0.984,-0.167,-16.795,33.696,-33.218
-1.029,-0.975,-0.169,-15.749,26.993,-32.896
-1.026,-0.971,-0.171,-14.567,20.286,-32.469
-1.021,-0.967,-0.174,-12.917,13.873,-32.019
-1.014,-0.965,-0.177,-10.547,8.026,-31.545
-1.005,-0.962,-0.181,-7.204,2.895,-31.064
-0.995,-0.958,-0.184,-2.540,-1.499,-30.563
-0.985,-0.951,-0.188,2.492,-4.933,-30.014
-0.974,-0.940,-0.192,7.184,-7.647,-29.419
-0.963,-0.927,-0.196,10.726,-9.788,-28.764
-0.950,-0.913,-0.201,13.092,-11.462,-28.072
-0.937,-0.900,-0.208,14.548,-12.597,-27.318
-0.924,-0.888,-0.216,15.201,-13.447,-26.483
-0.909,-0.878,-0.226,15.561,-14.076,-25.602
-0.895,-0.871,-0.237,15.814,-14.458,-24.689
-0.879,-0.865,-0.249,16.116,-14.704,-23.759
-0.864,-0.859,-0.260,16.562,-14.872,-22.798
-0.850,-0.853,-0.272,17.083,-14.967,-21.860
-0.836,-0.845,-0.282,17.568,-14.986,-20.974
-0.822,-0.836,-0.291,17.903,-14.947,-20.203
-0.809,-0.826,-0.299,17.957,-14.831,-19.555
-0.795,-0.815,-0.306,17.813,-14.584,-19.010
-0.782,-0.805,-0.312,17.492,-14.275,-18.581
-0.771,-0.795,-0.318,16.768,-13.953,-18.256
-0.760,-0.786,-0.325,15.709,-13.614,-17.964
-0.751,-0.779,-0.331,14.389,-13.254,-17.671
-0.742,-0.778,-0.336,13.017,-12.863,-17.356
-0.733,-0.776,-0.341,11.900,-12.440,-17.048
-0.726,-0.775,-0.345,11.083,-11.965,-16.744
-0.719,-0.774,-0.349,10.471,-11.472,-16.457
-0.713,-0.772,-0.352,9.964,-10.951,-16.170
-0.707,-0.770,-0.355,9.445,-10.427,-15.879
-0.702,-0.768,-0.357,8.840,-9.932,-15.586
-0.698,-0.766,-0.359,8.066,-9.483,-15.303
-0.694,-0.764,-0.362,7.240,-9.079,-15.021
-0.690,-0.763,-0.365,6.404,-8.726,-14.734
-0.686,-0.762,-0.368,5.553,-8.418,-14.450
-0.683,-0.761,-0.372,4.678,-8.145,-14.172
-0.680,-0.761,-0.375,3.901,-7.918,-13.898
-0.677,-0.761,-0.378,3.268,-7.749,-13.625
-0.674,-0.762,-0.381,2.886,-7.637,-13.359
-0.671,-0.764,-0.383,2.665,-7.575,-13.101
-0.668,-0.765,-0.385,2.550,-7.579,-12.847
-0.665,-0.765,-0.387,2.486,-7.631,-12.598
-0.661,-0.764,-0.388,2.407,-7.726,-12.359
-0.658,-0.763,-0.389,2.292,-7.841,-12.119
-0.655,-0.762,-0.390,2.171,-7.949,-11.871
-0.652,-0.761,-0.392,2.098,-8.033,-11.616
-0.649,-0.760,-0.392,2.076,-8.101,-11.384
-0.645,-0.759,-0.393,2.091,-8.146,-11.175
-0.642,-0.758,-0.393,2.118,-8.144,-10.992
-0.638,-0.757,-0.393,2.204,-8.085,-10.833
-0.634,-0.756,-0.394,2.374,-7.976,-10.704
-0.631,-0.755,-0.395,2.613,-7.833,-10.613
-0.628,-0.754,-0.396,2.821,-7.699,-10.556
-0.625,-0.753,-0.397,2.960,-7.578,-10.499
-0.623,-0.752,-0.398,3.066,-7.481,-10.428
-0.620,-0.752,-0.399,3.173,-7.390,-10.342
-0.618,-0.753,-0.401,3.329,-7.295,-10.241
-0.616,-0.753,-0.402,3.530,-7.173,-10.121
-0.614,-0.754,-0.402,3.779,-7.023,-9.977
-0.612,-0.755,-0.401,4.092,-6.841,-9.802
-0.610,-0.755,-0.400,4.449,-6.632,-9.617
-0.609,-0.756,-0.399,4.868,-6.376,-9.423
-0.607,-0.756,-0.396,5.358,-6.079,-9.221
-0.606,-0.757,-0.394,5.972,-5.734,-9.013
-0.605,-0.758,-0.391,6.675,-5.340,-8.817
-0.605,-0.758,-0.388,7.446,-4.853,-8.631
-0.604,-0.758,-0.385,8.301,-4.309,-8.448
-0.604,-0.759,-0.381,9.200,-3.706,-8.265
-0.603,-0.760,-0.377,10.137,-3.048,-8.077
-0.603,-0.761,-0.373,11.105,-2.366,-7.895
-0.604,-0.763,-0.368,12.134,-1.711,-7.732
-0.604,-0.766,-0.364,13.257,-1.108,-7.563
-0.606,-0.769,-0.360,14.543,-0.517,-7.393
-0.607,-0.773,-0.356,16.188,0.037,-7.209
-0.608,-0.778,-0.351,18.156,0.534,-7.005
-0.609,-0.783,-0.348,20.485,0.960,-6.777
-0.611,-0.787,-0.345,23.125,1.335,-6.522
-0.613,-0.792,-0.342,26.053,1.651,-6.223
-0.615,-0.795,-0.340,29.003,1.924,-5.902
-0.617,-0.797,-0.339,31.777,2.168,-5.555
-0.619,-0.797,-0.337,34.215,2.428,-5.176
-0.621,-0.797,-0.336,36.052,2.721,-4.770
-0.623,-0.795,-0.334,37.469,3.083,-4.361
-0.625,-0.794,-0.330,38.536,3.499,-3.964
-0.626,-0.794,-0.325,39.394,3.921,-3.562
-0.628,-0.796,-0.320,40.342,4.348,-3.139
-0.630,-0.799,-0.315,41.528,4.781,-2.734
-0.631,-0.803,-0.311,42.965,5.243,-2.328
-0.632,-0.806,-0.306,44.576,5.724,-1.930
-0.633,-0.808,-0.302,46.325,6.252,-1.548
-0.633,-0.810,-0.299,48.258,6.856,-1.145
-0.634,-0.811,-0.296,50.098,7.559,-0.708
-0.635,-0.810,-0.294,51.610,8.407,-0.246
-0.636,-0.809,-0.293,52.537,9.463,0.257
-0.636,-0.806,-0.291,53.029,10.754,0.765
-0.637,-0.805,-0.287,53.169,12.262,1.264
-0.637,-0.804,-0.281,53.049,13.892,1.756
-0.637,-0.806,-0.274,52.803,15.472,2.226
-0.637,-0.810,-0.267,52.554,16.919,2.665
-0.638,-0.813,-0.261,52.279,18.241,3.060
-0.638,-0.815,-0.255,51.964,19.509,3.426

-0.645,-0.978,0.298,47.199,20.218,1.790
-0.654,-0.970,0.306,41.556,21.342,0.343
-0.664,-0.961,0.311,34.638,22.816,-0.927
-0.672,-0.954,0.314,26.469,24.506,-2.198
-0.679,-0.950,0.314,18.331,26.291,-3.524
-0.686,-0.950,0.312,10.651,27.930,-4.929
-0.691,-0.953,0.308,4.004,29.546,-6.332
-0.694,-0.960,0.302,0.185,31.246,-7.681
-0.693,-0.970,0.293,-2.666,33.380,-8.956
-0.693,-0.981,0.285,-4.233,35.332,-10.362
-0.698,-0.989,0.277,-5.267,36.775,-11.522
-0.704,-0.995,0.269,-6.040,37.680,-12.098
-0.709,-0.999,0.261,-6.714,38.164,-12.373
-0.713,-1.002,0.252,-7.313,38.201,-12.460
-0.717,-1.006,0.242,-7.837,37.976,-12.396
-0.720,-1.009,0.232,-8.206,37.502,-12.198
-0.723,-1.010,0.221,-8.463,36.838,-11.946
-0.725,-1.011,0.209,-8.563,36.009,-11.670
-0.728,-1.011,0.197,-8.479,35.095,-11.317
-0.730,-1.011,0.186,-8.219,33.963,-10.919
-0.731,-1.008,0.174,-7.812,32.642,-10.528
-0.731,-1.005,0.161,-7.281,31.107,-10.154
-0.730,-1.000,0.149,-6.655,29.462,-9.777
-0.729,-0.995,0.136,-5.950,27.719,-9.403
-0.728,-0.990,0.124,-5.236,25.895,-9.045
-0.725,-0.984,0.110,-4.532,24.009,-8.674
-0.722,-0.979,0.097,-3.818,22.069,-8.293
-0.719,-0.974,0.085,-3.116,20.075,-7.902
-0.716,-0.967,0.072,-2.460,18.063,-7.509
-0.712,-0.961,0.060,-1.893,16.040,-7.116
-0.708,-0.954,0.049,-1.395,14.055,-6.720
-0.703,-0.946,0.037,-1.014,12.115,-6.376
-0.699,-0.937,0.027,-0.748,10.239,-6.090
-0.693,-0.928,0.016,-0.616,8.492,-5.860
-0.687,-0.920,0.007,-0.557,6.867,-5.710
-0.680,-0.914,-0.002,-0.550,5.383,-5.641
-0.673,-0.908,-0.010,-0.504,4.141,-5.625
-0.665,-0.904,-0.017,-0.390,3.130,-5.662
-0.657,-0.900,-0.023,-0.167,2.356,-5.761
-0.649,-0.896,-0.030,0.177,1.831,-5.896
-0.640,-0.893,-0.037,0.573,1.567,-6.032
-0.633,-0.889,-0.044,0.926,1.443,-6.123
-0.626,-0.886,-0.050,1.124,1.415,-6.147
-0.620,-0.883,-0.057,1.204,1.453,-6.119
-0.614,-0.881,-0.064,1.202,1.529,-6.057
-0.609,-0.880,-0.071,1.135,1.619,-5.956
-0.604,-0.879,-0.079,1.011,1.697,-5.811
-0.600,-0.879,-0.086,0.837,1.751,-5.649
-0.596,-0.878,-0.093,0.602,1.771,-5.472
-0.592,-0.878,-0.100,0.363,1.774,-5.283
-0.588,-0.879,-0.107,0.186,1.759,-5.095
-0.585,-0.879,-0.114,0.054,1.710,-4.926
-0.582,-0.878,-0.120,-0.052,1.611,-4.767
-0.580,-0.877,-0.126,-0.150,1.498,-4.621
-0.577,-0.877,-0.131,-0.220,1.379,-4.474
-0.574,-0.877,-0.136,-0.242,1.243,-4.340
-0.572,-0.876,-0.141,-0.221,1.088,-4.216
-0.570,-0.876,-0.145,-0.142,0.917,-4.100
-0.568,-0.876,-0.148,-0.024,0.749,-3.983
-0.566,-0.876,-0.151,0.143,0.599,-3.873
-0.564,-0.876,-0.154,0.349,0.459,-3.766
-0.562,-0.875,-0.157,0.598,0.331,-3.666
-0.560,-0.874,-0.159,0.867,0.220,-3.583
-0.559,-0.873,-0.162,1.142,0.130,-3.512
-0.557,-0.872,-0.164,1.424,0.053,-3.444
-0.555,-0.871,-0.167,1.731,-0.007,-3.381
-0.553,-0.871,-0.169,2.085,-0.057,-3.311
-0.551,-0.871,-0.172,2.512,-0.103,-3.249
-0.549,-0.873,-0.175,3.081,-0.144,-3.190
-0.547,-0.874,-0.178,3.774,-0.165,-3.110
-0.545,-0.875,-0.180,4.540,-0.177,-3.000
-0.543,-0.875,-0.181,5.315,-0.176,-2.875
-0.542,-0.875,-0.183,6.031,-0.146,-2.734
-0.540,-0.874,-0.184,6.674,-0.087,-2.580
-0.539,-0.873,-0.185,7.195,-0.006,-2.402
-0.537,-0.871,-0.185,7.630,0.104,-2.204
-0.535,-0.870,-0.186,7.986,0.246,-1.982
-0.534,-0.870,-0.187,8.304,0.402,-1.721
-0.532,-0.871,-0.189,8.630,0.567,-1.443
-0.531,-0.871,-0.191,9.018,0.746,-1.140
-0.529,-0.872,-0.193,9.485,0.935,-0.823
-0.528,-0.872,-0.195,10.046,1.127,-0.499
-0.527,-0.873,-0.196,10.639,1.325,-0.178
-0.525,-0.873,-0.196,11.285,1.531,0.141
-0.524,-0.873,-0.195,11.973,1.752,0.452
-0.524,-0.872,-0.194,12.700,1.976,0.764
-0.523,-0.871,-0.193,13.454,2.225,1.068
-0.523,-0.871,-0.191,14.230,2.532,1.350
-0.523,-0.871,-0.189,15.023,2.853,1.614
-0.523,-0.870,-0.187,15.829,3.174,1.862
-0.523,-0.871,-0.185,16.721,3.501,2.102
-0.524,-0.872,-0.182,17.721,3.839,2.344
-0.525,-0.874,-0.180,18.911,4.218,2.595
-0.526,-0.876,-0.178,20.311,4.648,2.870
-0.527,-0.877,-0.176,22.013,5.155,3.164
-0.528,-0.877,-0.173,23.827,5.730,3.478
-0.530,-0.878,-0.169,25.736,6.368,3.812
-0.532,-0.879,-0.165,27.744,7.072,4.170
-0.534,-0.879,-0.159,29.759,7.784,4.538
-0.537,-0.878,-0.154,31.580,8.511,4.941
-0.540,-0.877,-0.149,33.157,9.270,5.379
-0.542,-0.876,-0.145,34.476,10.078,5.833
-0.545,-0.874,-0.141,35.541,10.927,6.312
-0.548,-0.872,-0.138,36.416,11.852,6.824
-0.550,-0.871,-0.137,37.284,12.992,7.342
-0.552,-0.872,-0.137,38.313,14.284,7.881
-0.554,-0.874,-0.136,39.566,15.646,8.448
-0.557,-0.877,-0.135,41.104,16.957,9.047
-0.559,-0.881,-0.133,42.991,18.166,9.712
-0.563,-0.883,-0.130,44.916,19.149,10.366
-0.567,-0.884,-0.127,46.680,19.908,11.016
-0.570,-0.884,-0.122,48.108,20.513,11.632
-0.574,-0.885,-0.118,49.198,20.979,12.232
-0.578,-0.884,-0.114,49.917,21.340,12.794
-0.582,-0.882,-0.110,50.371,21.645,13.309
-0.585,-0.880,-0.107,50.588,21.978,13.804
-0.589,-0.877,-0.105,50.656,22.410,14.249
-0.592,-0.875,-0.104,50.698,23.018,14.590
-0.595,-0.874,-0.103,50.844,23.786,14.899

-0.421,-0.914,0.604,34.297,21.934,14.020
-0.426,-0.919,0.614,19.895,20.946,13.212
-0.433,-0.922,0.623,7.121,20.370,11.900
-0.438,-0.925,0.628,-4.298,20.431,10.926
-0.434,-0.932,0.634,-12.518,22.154,10.228
-0.430,-0.945,0.641,-17.777,26.080,9.799
-0.422,-0.962,0.642,-19.670,33.849,9.622
-0.423,-0.981,0.642,-19.682,43.416,9.627
-0.429,-0.993,0.643,-18.730,53.008,9.768
-0.442,-1.000,0.647,-17.647,60.551,9.848
-0.460,-1.002,0.646,-16.894,65.469,10.003
-0.476,-1.004,0.642,-16.388,68.971,9.987
-0.492,-1.005,0.636,-15.981,71.163,9.853
-0.508,-1.005,0.626,-15.610,71.959,9.715
-0.523,-1.005,0.612,-15.195,71.969,9.590
-0.537,-1.004,0.595,-14.721,71.408,9.471
-0.550,-1.002,0.577,-14.201,70.471,9.381
-0.562,-1.000,0.557,-13.626,69.306,9.337
-0.572,-0.998,0.537,-12.913,67.899,9.308
-0.583,-0.997,0.518,-11.957,66.385,9.282
-0.592,-0.995,0.501,-10.598,64.811,9.253
-0.601,-0.992,0.485,-9.049,63.221,9.221
-0.609,-0.987,0.471,-7.446,61.457,9.204
-0.615,-0.981,0.458,-5.895,59.634,9.213
-0.619,-0.975,0.446,-4.386,57.822,9.246
-0.623,-0.968,0.435,-2.928,56.110,9.281
-0.626,-0.960,0.425,-1.576,54.560,9.324
-0.627,-0.953,0.414,-0.305,53.233,9.405
-0.627,-0.947,0.401,0.948,52.016,9.530
-0.627,-0.943,0.389,2.208,50.904,9.735
-0.627,-0.940,0.375,3.525,49.896,10.043
-0.627,-0.938,0.359,4.984,48.984,10.443
-0.627,-0.937,0.344,6.623,48.118,10.904
-0.627,-0.935,0.328,8.373,47.230,11.406
-0.627,-0.932,0.312,10.120,46.306,11.924
-0.627,-0.928,0.297,11.699,45.342,12.467
-0.627,-0.923,0.283,12.861,44.347,13.049
-0.627,-0.917,0.268,13.622,43.313,13.658
-0.626,-0.911,0.255,14.020,41.419,14.266
-0.625,-0.904,0.241,14.098,40.130,14.855
-0.624,-0.898,0.228,13.942,38.712,15.400
-0.622,-0.892,0.216,13.572,37.136,15.880
-0.620,-0.887,0.205,12.934,35.417,16.307
-0.617,-0.883,0.193,12.168,33.582,16.686
-0.615,-0.879,0.183,11.315,31.674,17.017
-0.612,-0.875,0.173,10.382,29.697,17.311
-0.608,-0.871,0.165,9.401,27.697,17.556
-0.605,-0.867,0.157,8.329,25.699,17.750
-0.602,-0.863,0.150,7.110,23.756,17.892
-0.598,-0.859,0.143,5.787,21.912,17.987
-0.595,-0.855,0.138,4.400,20.188,18.034
-0.592,-0.850,0.132,2.986,18.607,18.011
-0.588,-0.846,0.128,1.581,17.238,17.909
-0.585,-0.842,0.123,0.151,16.087,17.750
-0.582,-0.839,0.118,-1.228,15.150,17.553
-0.579,-0.836,0.113,-2.458,14.385,17.326
-0.577,-0.835,0.109,-3.496,13.764,17.070
-0.575,-0.834,0.104,-4.341,13.316,16.795
-0.573,-0.835,0.100,-4.985,13.021,16.516
-0.572,-0.836,0.095,-5.341,12.802,16.242
-0.571,-0.838,0.091,-5.519,12.647,15.996
-0.571,-0.839,0.088,-5.580,12.544,15.776
-0.571,-0.840,0.085,-5.587,12.498,15.593
-0.572,-0.841,0.082,-5.567,12.471,15.452
-0.574,-0.841,0.079,-5.550,12.437,15.348
-0.576,-0.842,0.077,-5.543,12.378,15.273
-0.578,-0.842,0.074,-5.555,12.285,15.251
-0.580,-0.841,0.072,-5.599,12.169,15.279
-0.583,-0.841,0.069,-5.666,12.045,15.368
-0.585,-0.840,0.067,-5.720,11.921,15.496
-0.587,-0.840,0.065,-5.743,11.816,15.660
-0.589,-0.841,0.064,-5.739,11.737,15.877
-0.592,-0.840,0.063,-5.711,11.683,16.141
-0.594,-0.839,0.062,-5.656,11.675,16.443
-0.597,-0.839,0.061,-5.564,11.745,16.789
-0.599,-0.839,0.061,-5.425,11.856,17.177
-0.602,-0.839,0.062,-5.171,12.012,17.628
-0.606,-0.839,0.063,-4.806,12.226,18.128
-0.609,-0.839,0.064,-4.336,12.493,18.703
-0.612,-0.839,0.066,-3.789,12.830,19.353
-0.615,-0.837,0.068,-3.246,13.245,20.053
-0.619,-0.834,0.071,-2.761,13.752,20.739
-0.623,-0.831,0.074,-2.383,14.358,21.379
-0.627,-0.827,0.077,-2.113,15.037,21.997
-0.632,-0.822,0.080,-1.985,15.782,22.545
-0.637,-0.817,0.083,-1.927,16.589,23.036
-0.642,-0.813,0.086,-1.884,17.512,23.472
-0.648,-0.810,0.088,-1.810,18.492,23.840
-0.653,-0.807,0.090,-1.623,19.594,24.184
-0.658,-0.806,0.090,-1.271,20.846,24.499
-0.663,-0.805,0.090,-0.716,22.257,24.785
-0.668,-0.805,0.089,0.081,23.913,25.054
-0.673,-0.804,0.088,1.119,25.710,25.328
-0.679,-0.803,0.086,2.309,27.602,25.631
-0.684,-0.801,0.085,3.528,29.561,25.967
-0.690,-0.798,0.084,4.572,31.483,26.285
-0.696,-0.794,0.083,5.384,33.323,26.589
-0.702,-0.790,0.081,5.957,35.080,26.890
-0.708,-0.786,0.080,6.342,36.723,27.180
-0.714,-0.781,0.079,6.607,38.227,27.430
-0.719,-0.778,0.077,6.864,39.612,27.591
-0.724,-0.774,0.075,7.194,40.959,27.717
-0.728,-0.771,0.073,7.641,42.347,27.805
-0.731,-0.768,0.070,8.135,43.938,27.821
-0.734,-0.764,0.066,8.577,45.765,27.801
-0.736,-0.759,0.060,8.940,47.862,27.786
-0.738,-0.754,0.055,8.706,50.150,27.775
-0.739,-0.749,0.050,8.892,52.627,27.726
-0.740,-0.743,0.044,8.957,55.239,27.652
-0.741,-0.736,0.039,8.905,57.964,27.540
-0.742,-0.730,0.033,8.731,60.716,27.390
-0.743,-0.723,0.027,8.473,63.464,27.204
-0.745,-0.717,0.020,8.175,66.122,26.958
-0.746,-0.713,0.013,7.921,68.796,26.605
-0.747,-0.710,0.005,7.832,71.523,26.198
-0.748,-0.709,-0.001,7.888,74.234,25.787
-0.748,-0.708,-0.007,8.104,77.417,25.489
-0.748,-0.708,-0.014,8.648,80.375,25.208
-0.748,-0.708,-0.020,9.605,83.323,24.872

-0.779,-0.724,0.456,-4.761,75.000,21.132
-0.769,-0.729,0.484,-15.233,71.976,18.535
-0.762,-0.736,0.506,-22.017,70.501,16.387
-0.766,-0.741,0.527,-25.924,69.890,14.638
-0.777,-0.742,0.545,-28.416,70.214,13.327
-0.788,-0.742,0.559,-29.996,72.113,12.277
-0.796,-0.740,0.571,-31.205,75.474,11.474
-0.803,-0.736,0.580,-32.663,80.010,10.874
-0.812,-0.733,0.583,-34.342,85.368,10.475
-0.821,-0.733,0.580,-35.857,90.684,10.222
-0.829,-0.736,0.572,-37.224,95.740,9.983
-0.838,-0.743,0.559,-38.249,99.945,9.758
-0.848,-0.752,0.544,-38.755,102.809,9.539
-0.858,-0.764,0.525,-38.613,103.171,9.335
-0.869,-0.777,0.504,-37.846,103.133,9.073
-0.879,-0.791,0.482,-36.572,102.174,8.698
-0.887,-0.802,0.460,-34.205,100.609,8.275
-0.894,-0.807,0.438,-31.461,98.691,7.879
-0.899,-0.807,0.417,-28.797,96.532,7.573
-0.903,-0.804,0.398,-26.589,94.306,7.384
-0.908,-0.797,0.381,-25.242,92.074,7.323
-0.911,-0.790,0.365,-24.408,89.712,7.324
-0.913,-0.784,0.350,-23.805,87.019,7.356
-0.914,-0.781,0.335,-23.352,84.097,7.344
-0.914,-0.779,0.321,-22.965,81.121,7.295
-0.912,-0.778,0.306,-22.487,78.243,7.236
-0.909,-0.778,0.291,-21.858,75.625,7.163
-0.905,-0.777,0.276,-21.001,73.248,7.054
-0.902,-0.775,0.261,-19.835,71.064,6.899
-0.899,-0.772,0.246,-18.530,68.979,6.747
-0.897,-0.768,0.232,-17.163,66.924,6.601
-0.894,-0.765,0.218,-15.790,64.879,6.459
-0.891,-0.762,0.205,-14.430,62.840,6.319
-0.888,-0.759,0.192,-13.154,60.789,6.187
-0.884,-0.755,0.180,-12.001,58.707,6.067
-0.880,-0.752,0.169,-11.008,56.586,5.963
-0.875,-0.749,0.158,-10.165,54.463,5.863
-0.871,-0.747,0.147,-9.468,52.362,5.799
-0.866,-0.745,0.136,-8.845,50.285,5.768
-0.861,-0.744,0.125,-8.228,48.233,5.737
-0.856,-0.744,0.115,-7.564,46.248,5.702
-0.851,-0.743,0.106,-6.827,44.343,5.675
-0.845,-0.741,0.098,-6.054,42.528,5.648
-0.840,-0.738,0.090,-5.328,40.817,5.619
-0.836,-0.734,0.083,-4.688,39.278,5.565
-0.831,-0.730,0.077,-4.181,37.902,5.502
-0.827,-0.726,0.072,-3.770,36.606,5.416
-0.824,-0.721,0.067,-3.555,35.382,5.332
-0.821,-0.717,0.062,-3.432,34.225,5.226
-0.818,-0.714,0.057,-3.400,33.189,5.079
-0.816,-0.712,0.051,-3.415,32.269,4.937
-0.813,-0.712,0.044,-3.381,31.421,4.807
-0.811,-0.713,0.037,-3.215,30.639,4.698
-0.808,-0.714,0.031,-2.909,29.890,4.609
-0.807,-0.716,0.025,-2.440,29.114,4.540
-0.806,-0.717,0.019,-1.854,28.268,4.477
-0.805,-0.719,0.013,-1.179,27.376,4.428
-0.804,-0.721,0.007,-0.451,26.440,4.409
-0.804,-0.721,0.002,0.276,25.454,4.418
-0.803,-0.721,-0.003,0.994,24.419,4.460
-0.803,-0.721,-0.008,1.673,23.338,4.527
-0.803,-0.720,-0.012,2.277,22.281,4.597
-0.802,-0.718,-0.015,2.752,21.286,4.687
-0.801,-0.717,-0.018,3.110,20.390,4.835
-0.799,-0.715,-0.020,3.420,19.618,5.014
-0.798,-0.713,-0.020,3.695,18.990,5.210
-0.796,-0.712,-0.020,3.964,18.440,5.428
-0.795,-0.712,-0.020,4.243,17.954,5.663
-0.794,-0.712,-0.020,4.602,17.540,5.938
-0.793,-0.713,-0.020,5.076,17.163,6.238
-0.793,-0.715,-0.021,5.711,16.842,6.566
-0.792,-0.716,-0.022,6.489,16.586,6.925
-0.792,-0.717,-0.024,7.368,16.382,7.320
-0.792,-0.718,-0.025,8.302,16.233,7.766
-0.792,-0.717,-0.026,9.142,16.134,8.249
-0.792,-0.714,-0.027,9.769,16.107,8.770
-0.793,-0.709,-0.028,10.102,16.140,9.324
-0.794,-0.704,-0.027,10.202,16.262,9.842
-0.795,-0.699,-0.024,10.100,16.421,10.280
-0.796,-0.696,-0.022,9.945,16.577,10.706
-0.798,-0.695,-0.019,9.831,16.766,11.076
-0.799,-0.696,-0.017,9.806,17.037,11.407
-0.800,-0.696,-0.015,9.920,17.354,11.727
-0.801,-0.696,-0.014,10.184,17.731,12.027
-0.803,-0.695,-0.014,10.472,18.201,12.291
-0.804,-0.693,-0.015,10.729,18.799,12.564
-0.805,-0.689,-0.017,10.890,19.513,12.838
-0.806,-0.684,-0.019,10.861,20.339,13.100
-0.808,-0.678,-0.022,10.502,21.317,13.361
-0.809,-0.673,-0.024,9.975,22.475,13.505
-0.810,-0.670,-0.024,9.354,23.761,13.592
-0.811,-0.669,-0.024,8.731,25.040,13.698
-0.812,-0.670,-0.026,8.320,26.344,13.796
-0.812,-0.673,-0.027,8.117,27.644,13.808
-0.813,-0.674,-0.029,8.066,28.910,13.743
-0.813,-0.675,-0.031,8.168,30.131,13.658
-0.813,-0.675,-0.033,8.448,31.364,13.564
-0.813,-0.676,-0.036,8.970,32.620,13.393
-0.812,-0.675,-0.039,9.629,33.945,13.163
-0.810,-0.672,-0.044,10.354,35.401,12.896
-0.809,-0.669,-0.050,11.092,37.181,12.625
-0.806,-0.665,-0.057,11.771,39.258,12.355
-0.804,-0.660,-0.063,12.192,41.586,12.079
-0.801,-0.655,-0.068,12.373,44.047,11.781
-0.799,-0.652,-0.072,12.286,46.497,11.497
-0.798,-0.650,-0.076,12.077,48.892,11.198
-0.796,-0.650,-0.080,11.864,51.126,10.850
-0.794,-0.652,-0.083,11.782,53.200,10.396
-0.793,-0.656,-0.086,12.075,55.168,9.799
-0.791,-0.661,-0.089,12.853,57.112,9.159
-0.788,-0.665,-0.094,14.233,59.104,8.482
-0.786,-0.667,-0.100,16.031,61.121,7.816
-0.778,-0.666,-0.108,17.723,63.573,6.922
-0.778,-0.665,-0.117,19.198,65.922,6.072
-0.776,-0.662,-0.127,20.099,68.234,5.342
-0.773,-0.658,-0.138,20.508,70.540,4.556
-0.769,-0.652,-0.147,20.367,72.935,3.735
-0.764,-0.647,-0.155,19.732,75.581,2.803
-0.760,-0.645,-0.162,18.628,78.368,1.822

-0.953,-0.808,0.204,16.013,75.691,-1.979
-0.950,-0.828,0.228,15.811,74.256,-5.411
-0.946,-0.836,0.242,17.477,73.875,-7.822
-0.950,-0.834,0.253,18.969,74.652,-9.693
-0.959,-0.825,0.268,19.054,75.454,-11.346
-0.969,-0.818,0.278,18.081,76.072,-12.507
-0.976,-0.815,0.284,16.184,76.510,-13.227
-0.981,-0.819,0.286,13.547,76.608,-13.802
-0.987,-0.825,0.282,10.971,76.292,-14.302
-0.987,-0.834,0.272,9.068,75.632,-14.700
-0.991,-0.844,0.259,8.126,74.784,-14.994
-0.993,-0.854,0.247,7.956,73.783,-15.296
-0.995,-0.860,0.236,8.441,72.692,-15.675
-0.996,-0.863,0.227,9.350,71.496,-15.937
-0.996,-0.861,0.224,10.454,70.251,-16.044
-0.995,-0.855,0.221,11.299,68.973,-16.023
-0.993,-0.847,0.220,11.582,67.636,-15.931
-0.991,-0.841,0.219,11.378,66.286,-15.723
-0.988,-0.836,0.218,10.999,64.914,-15.457
-0.984,-0.836,0.213,10.755,63.574,-15.201
-0.979,-0.838,0.206,10.852,62.288,-14.957
-0.974,-0.840,0.195,11.391,61.072,-14.706
-0.969,-0.840,0.182,12.504,59.924,-14.422
-0.965,-0.839,0.168,13.884,58.795,-14.107
-0.962,-0.837,0.153,15.353,57.634,-13.757
-0.959,-0.833,0.138,16.719,56.432,-13.350
-0.956,-0.828,0.123,17.823,55.115,-12.890
-0.953,-0.822,0.109,18.453,53.565,-12.404
-0.949,-0.816,0.094,18.701,51.791,-11.894
-0.944,-0.811,0.080,18.664,49.784,-11.377
-0.939,-0.807,0.066,18.497,47.693,-10.858
-0.932,-0.804,0.053,18.294,45.557,-10.316
-0.925,-0.803,0.041,18.193,43.490,-9.789
-0.918,-0.802,0.030,18.243,41.518,-9.261
-0.911,-0.801,0.019,18.429,39.713,-8.735
-0.903,-0.798,0.009,18.656,38.043,-8.203
-0.895,-0.794,0.001,18.871,36.513,-7.659
-0.888,-0.789,-0.006,18.954,35.118,-7.139
-0.880,-0.783,-0.013,18.875,33.885,-6.592
-0.873,-0.777,-0.018,18.628,32.811,-6.022
-0.866,-0.770,-0.023,18.194,31.820,-5.474
-0.860,-0.765,-0.027,17.496,30.889,-4.954
-0.855,-0.760,-0.032,16.685,30.047,-4.451
-0.849,-0.757,-0.037,15.936,29.302,-3.985
-0.844,-0.756,-0.042,15.384,28.623,-3.577
-0.840,-0.757,-0.046,15.054,27.974,-3.282
-0.836,-0.757,-0.049,14.949,27.349,-3.030
-0.832,-0.756,-0.052,14.962,26.735,-2.799
-0.829,-0.754,-0.055,15.021,26.125,-2.587
-0.826,-0.752,-0.058,15.070,25.529,-2.397
-0.824,-0.749,-0.060,15.040,24.959,-2.193
-0.822,-0.746,-0.061,14.931,24.404,-1.987
-0.820,-0.744,-0.061,14.788,23.841,-1.785
-0.819,-0.744,-0.061,14.657,23.277,-1.585
-0.817,-0.746,-0.061,14.644,22.735,-1.383
-0.817,-0.748,-0.061,14.937,22.206,-1.145
-0.816,-0.751,-0.062,15.508,21.691,-0.879
-0.816,-0.753,-0.062,16.334,21.190,-0.602
-0.816,-0.755,-0.062,17.372,20.710,-0.314
-0.816,-0.756,-0.063,18.583,20.275,0.019
-0.817,-0.756,-0.064,19.812,19.889,0.406
-0.817,-0.754,-0.065,20.951,19.566,0.834
-0.818,-0.752,-0.065,21.913,19.310,1.295
-0.819,-0.749,-0.064,22.684,19.088,1.777
-0.820,-0.747,-0.063,23.199,18.895,2.273
-0.820,-0.746,-0.062,23.695,18.731,2.800
-0.821,-0.746,-0.060,24.315,18.565,3.343
-0.822,-0.747,-0.059,25.072,18.394,3.879
-0.822,-0.748,-0.059,25.936,18.231,4.386
-0.822,-0.749,-0.060,26.954,18.101,4.887
-0.821,-0.749,-0.061,28.072,18.010,5.392
-0.821,-0.749,-0.062,29.198,17.967,5.907
-0.821,-0.747,-0.064,30.168,17.969,6.425
-0.820,-0.744,-0.066,30.852,18.010,6.941
-0.820,-0.740,-0.068,31.138,18.085,7.439
-0.819,-0.737,-0.069,31.171,18.195,7.937
-0.818,-0.736,-0.069,31.095,18.313,8.442
-0.818,-0.737,-0.068,31.036,18.377,8.905
-0.818,-0.740,-0.067,31.098,18.372,9.312
-0.817,-0.742,-0.067,31.356,18.332,9.659
-0.817,-0.742,-0.068,31.658,18.287,9.986
-0.816,-0.741,-0.069,31.911,18.260,10.274
-0.815,-0.739,-0.071,32.054,18.314,10.527
-0.813,-0.736,-0.073,32.082,18.475,10.767
-0.812,-0.732,-0.076,32.011,18.802,10.979
-0.810,-0.728,-0.077,31.872,19.299,11.120
-0.808,-0.726,-0.079,31.708,19.925,11.241
-0.805,-0.726,-0.080,31.670,20.623,11.385
-0.803,-0.728,-0.081,31.833,21.300,11.518
-0.801,-0.729,-0.082,32.178,21.924,11.604
-0.798,-0.730,-0.083,32.654,22.501,11.651
-0.796,-0.730,-0.085,33.153,23.042,11.664
-0.793,-0.730,-0.086,33.649,23.499,11.643
-0.791,-0.729,-0.088,34.102,23.888,11.559
-0.790,-0.727,-0.090,34.483,24.291,11.408
-0.788,-0.725,-0.092,34.776,24.769,11.241
-0.785,-0.721,-0.096,34.999,25.384,11.050
-0.783,-0.718,-0.099,35.109,26.232,10.822
-0.781,-0.714,-0.101,35.125,27.288,10.539
-0.779,-0.710,-0.103,35.060,28.539,10.212
-0.776,-0.708,-0.103,34.899,29.959,9.817
-0.774,-0.706,-0.103,34.712,31.421,9.375
-0.772,-0.705,-0.101,34.509,32.835,8.902
-0.770,-0.705,-0.102,34.430,34.135,8.468
-0.768,-0.707,-0.103,34.550,35.288,8.060
-0.767,-0.708,-0.106,34.747,36.311,7.627
-0.765,-0.708,-0.111,34.816,37.217,7.121
-0.762,-0.707,-0.116,34.768,38.197,6.578
-0.759,-0.707,-0.121,34.679,39.225,6.139
-0.757,-0.708,-0.127,34.559,40.257,5.723
-0.755,-0.708,-0.132,34.231,41.326,5.225
-0.752,-0.706,-0.136,33.722,42.497,4.685
-0.749,-0.704,-0.139,33.061,43.855,4.126
-0.747,-0.702,-0.139,32.309,45.142,3.562
-0.745,-0.702,-0.137,31.398,46.175,2.971
-0.743,-0.705,-0.137,30.685,46.980,2.308
-0.738,-0.707,-0.138,30.160,47.715,1.617
-0.737,-0.710,-0.140,29.776,48.116,1.023
-0.735,-0.711,-0.145,29.429,48.459,0.398

-0.895,-0.725,0.355,28.475,48.289,-8.243
-0.903,-0.741,0.368,28.636,48.854,-16.139
-0.912,-0.746,0.379,29.117,50.141,-23.375
-0.922,-0.744,0.383,29.028,51.985,-29.808
-0.934,-0.736,0.384,27.672,53.718,-35.423
-0.947,-0.730,0.380,23.558,55.022,-40.003
-0.959,-0.731,0.372,15.817,55.820,-43.101
-0.971,-0.740,0.360,7.484,56.090,-45.251
-0.983,-0.753,0.344,0.171,55.852,-46.667
-0.992,-0.768,0.326,-5.668,55.312,-47.509
-1.000,-0.782,0.307,-9.816,54.550,-47.129
-1.008,-0.794,0.290,-11.770,53.623,-47.059
-1.014,-0.805,0.275,-12.385,52.608,-46.766
-1.017,-0.810,0.263,-12.320,51.460,-46.236
-1.019,-0.812,0.256,-12.011,50.114,-45.611
-1.019,-0.810,0.251,-11.740,48.594,-44.868
-1.018,-0.803,0.247,-11.682,46.954,-44.049
-1.015,-0.796,0.244,-11.978,45.170,-43.172
-1.011,-0.791,0.240,-12.605,43.406,-42.250
-1.005,-0.788,0.235,-13.378,41.806,-41.298
-0.997,-0.789,0.230,-13.893,40.444,-40.352
-0.989,-0.792,0.224,-13.968,39.301,-39.418
-0.981,-0.796,0.218,-13.606,38.248,-38.510
-0.974,-0.799,0.211,-12.884,37.266,-37.649
-0.966,-0.800,0.204,-11.639,36.298,-36.823
-0.960,-0.800,0.196,-10.260,35.244,-36.022
-0.953,-0.798,0.187,-8.960,34.115,-35.247
-0.947,-0.796,0.176,-7.852,32.887,-34.476
-0.940,-0.795,0.164,-6.857,31.604,-33.698
-0.934,-0.795,0.151,-5.912,30.290,-32.916
-0.927,-0.796,0.138,-5.005,28.955,-32.121
-0.920,-0.798,0.126,-4.112,27.560,-31.307
-0.913,-0.799,0.113,-3.252,26.094,-30.499
-0.906,-0.801,0.100,-2.451,24.507,-29.675
-0.899,-0.802,0.087,-1.736,22.870,-28.842
-0.892,-0.804,0.074,-1.085,21.209,-27.990
-0.885,-0.804,0.062,-0.531,19.488,-27.107
-0.878,-0.804,0.050,-0.069,17.756,-26.235
-0.871,-0.804,0.038,0.266,16.039,-25.379
-0.863,-0.802,0.027,0.500,14.397,-24.499
-0.855,-0.801,0.017,0.648,12.874,-23.610
-0.847,-0.799,0.007,0.717,11.482,-22.743
-0.838,-0.798,-0.001,0.747,10.212,-21.918
-0.830,-0.797,-0.009,0.793,9.109,-21.134
-0.822,-0.796,-0.015,0.882,8.125,-20.402
-0.814,-0.795,-0.020,1.000,7.277,-19.724
-0.806,-0.793,-0.026,1.125,6.549,-19.077
-0.799,-0.791,-0.031,1.240,5.952,-18.469
-0.792,-0.789,-0.036,1.320,5.466,-17.884
-0.785,-0.787,-0.041,1.358,5.094,-17.319
-0.779,-0.785,-0.045,1.373,4.796,-16.737
-0.774,-0.783,-0.050,1.327,4.564,-16.137
-0.769,-0.781,-0.055,1.243,4.378,-15.532
-0.765,-0.781,-0.059,1.132,4.246,-14.932
-0.760,-0.783,-0.063,1.098,4.155,-14.314
-0.756,-0.786,-0.065,1.229,4.103,-13.643
-0.753,-0.790,-0.066,1.577,4.037,-12.933
-0.751,-0.792,-0.067,2.093,3.937,-12.184
-0.750,-0.794,-0.067,2.640,3.777,-11.412
-0.749,-0.796,-0.068,3.201,3.591,-10.613
-0.748,-0.798,-0.068,3.711,3.379,-9.749
-0.748,-0.798,-0.069,4.133,3.158,-8.828
-0.748,-0.800,-0.070,4.514,2.946,-7.827
-0.749,-0.801,-0.071,4.902,2.727,-6.767
-0.749,-0.803,-0.071,5.358,2.525,-5.676
-0.750,-0.806,-0.072,5.966,2.356,-4.545
-0.751,-0.809,-0.072,6.984,2.221,-3.331
-0.751,-0.812,-0.072,8.349,2.113,-2.063
-0.752,-0.814,-0.071,9.965,2.026,-0.763
-0.753,-0.814,-0.069,11.704,1.947,0.530
-0.754,-0.814,-0.067,13.447,1.870,1.818
-0.756,-0.812,-0.063,15.142,1.747,3.125
-0.757,-0.810,-0.060,16.698,1.621,4.373
-0.759,-0.807,-0.057,18.094,1.510,5.569
-0.760,-0.804,-0.054,19.307,1.450,6.700
-0.761,-0.800,-0.052,20.362,1.482,7.774
-0.762,-0.796,-0.051,21.313,1.638,8.847
-0.762,-0.793,-0.051,22.222,1.941,9.893
-0.763,-0.790,-0.050,23.145,2.471,10.906
-0.764,-0.787,-0.049,24.101,3.130,11.847
-0.765,-0.785,-0.046,25.121,3.883,12.683
-0.767,-0.785,-0.042,26.308,4.646,13.388
-0.768,-0.785,-0.037,27.624,5.328,14.031
-0.770,-0.786,-0.032,29.128,5.815,14.597
-0.773,-0.787,-0.029,30.817,6.150,15.082
-0.776,-0.787,-0.026,32.508,6.372,15.452
-0.778,-0.785,-0.026,34.003,6.567,15.722
-0.780,-0.782,-0.027,35.213,6.818,15.958
-0.782,-0.778,-0.029,36.095,7.195,16.161
-0.783,-0.775,-0.032,36.705,7.837,16.335
-0.784,-0.771,-0.035,37.142,8.728,16.481
-0.786,-0.769,-0.037,37.506,9.891,16.604
-0.787,-0.768,-0.037,37.873,11.165,16.722
-0.788,-0.769,-0.037,38.193,12.402,16.810
-0.790,-0.772,-0.037,38.574,13.423,16.886
-0.790,-0.775,-0.037,39.041,14.201,16.962
-0.791,-0.778,-0.038,39.541,14.770,17.024
-0.791,-0.779,-0.040,39.871,15.189,17.043
-0.791,-0.779,-0.042,40.022,15.534,17.044
-0.791,-0.778,-0.045,40.018,15.888,17.020
-0.791,-0.777,-0.047,39.879,16.301,16.959
-0.790,-0.776,-0.049,39.643,16.841,16.862
-0.789,-0.775,-0.051,39.358,17.546,16.698
-0.788,-0.773,-0.052,39.192,18.500,16.513
-0.787,-0.772,-0.052,39.190,19.774,16.298
-0.786,-0.771,-0.049,39.334,21.222,16.039
-0.785,-0.771,-0.046,39.665,22.764,15.740
-0.783,-0.771,-0.043,40.217,24.311,15.390
-0.782,-0.771,-0.041,40.916,25.755,15.013
-0.780,-0.769,-0.040,41.508,27.115,14.576
-0.778,-0.766,-0.041,41.799,28.469,14.066
-0.775,-0.760,-0.044,41.632,29.849,13.477
-0.772,-0.754,-0.047,40.916,31.240,12.697
-0.770,-0.748,-0.052,39.853,32.778,11.880
-0.766,-0.745,-0.057,38.542,34.737,11.097
-0.763,-0.745,-0.063,37.172,36.913,10.344
-0.759,-0.747,-0.069,36.011,39.265,9.627
-0.755,-0.749,-0.070,35.114,41.621,8.978
-0.752,-0.752,-0.072,34.370,43.800,8.379

-0.953,-0.745,0.233,23.845,43.826,4.615
-0.958,-0.759,0.244,16.687,44.587,0.992
-0.964,-0.773,0.257,11.778,45.886,-2.574
-0.970,-0.786,0.270,8.429,47.547,-5.847
-0.973,-0.795,0.282,5.797,49.615,-8.893
-0.974,-0.799,0.291,3.179,51.837,-10.938
-0.976,-0.804,0.296,1.625,53.872,-13.335
-0.977,-0.801,0.293,-1.347,55.852,-15.648
-0.979,-0.800,0.287,-5.248,57.487,-17.776
-0.983,-0.804,0.280,-8.820,58.494,-19.775
-0.986,-0.813,0.274,-11.616,59.202,-21.913
-0.984,-0.822,0.266,-13.320,60.122,-23.932
-0.978,-0.830,0.257,-13.612,61.474,-25.471
-0.974,-0.833,0.248,-13.131,62.791,-26.393
-0.977,-0.832,0.239,-12.796,63.588,-26.979
-0.980,-0.831,0.234,-12.991,63.846,-26.662
-0.983,-0.834,0.228,-13.424,63.834,-27.301
-0.981,-0.838,0.222,-13.789,63.755,-27.240
-0.983,-0.846,0.216,-13.585,63.086,-26.896
-0.987,-0.855,0.207,-12.970,62.231,-26.509
-0.988,-0.860,0.196,-11.805,61.286,-25.959
-0.988,-0.863,0.183,-10.003,60.250,-25.344
-0.989,-0.863,0.169,-8.081,59.140,-24.667
-0.989,-0.862,0.154,-6.097,57.964,-23.884
-0.987,-0.860,0.138,-4.086,56.622,-23.016
-0.985,-0.858,0.123,-2.011,55.128,-22.040
-0.982,-0.854,0.109,-0.103,53.423,-21.012
-0.979,-0.850,0.096,1.552,51.404,-19.940
-0.975,-0.846,0.084,2.948,49.140,-18.841
-0.970,-0.842,0.073,4.117,46.640,-17.743
-0.964,-0.839,0.063,5.178,43.980,-16.705
-0.958,-0.836,0.054,6.209,41.254,-15.756
-0.950,-0.833,0.045,7.262,38.604,-14.890
-0.941,-0.830,0.035,8.374,36.193,-14.103
-0.932,-0.826,0.025,9.523,34.093,-13.377
-0.923,-0.820,0.014,10.438,32.267,-12.699
-0.915,-0.814,0.003,11.096,30.647,-12.019
-0.907,-0.809,-0.007,11.550,29.143,-11.316
-0.898,-0.805,-0.017,11.865,27.723,-10.540
-0.891,-0.803,-0.025,12.131,26.266,-9.809
-0.884,-0.802,-0.034,12.379,24.827,-9.156
-0.876,-0.801,-0.042,12.645,23.453,-8.463
-0.869,-0.800,-0.049,12.887,22.130,-7.794
-0.861,-0.798,-0.055,13.042,20.849,-7.170
-0.855,-0.797,-0.060,13.103,19.609,-6.569
-0.848,-0.796,-0.064,13.145,18.383,-6.019
-0.842,-0.795,-0.067,13.229,17.196,-5.519
-0.837,-0.795,-0.070,13.398,16.146,-5.071
-0.831,-0.794,-0.073,13.699,15.220,-4.638
-0.826,-0.793,-0.075,14.133,14.427,-4.218
-0.821,-0.792,-0.078,14.669,13.758,-3.796
-0.817,-0.791,-0.080,15.274,13.193,-3.353
-0.814,-0.791,-0.082,16.012,12.707,-2.897
-0.811,-0.791,-0.084,16.846,12.242,-2.423
-0.808,-0.792,-0.086,17.789,11.786,-1.923
-0.806,-0.793,-0.088,18.854,11.326,-1.370
-0.804,-0.795,-0.089,20.033,10.821,-0.747
-0.803,-0.796,-0.090,21.277,10.263,-0.082
-0.803,-0.797,-0.091,22.468,9.623,0.601
-0.802,-0.797,-0.092,23.587,8.928,1.322
-0.802,-0.796,-0.093,24.594,8.200,2.049
-0.802,-0.794,-0.094,25.458,7.471,2.786
-0.802,-0.791,-0.095,26.216,6.801,3.515
-0.802,-0.788,-0.095,26.872,6.185,4.220
-0.801,-0.787,-0.095,27.504,5.635,4.916
-0.801,-0.786,-0.095,28.238,5.150,5.604
-0.801,-0.786,-0.094,29.123,4.727,6.281
-0.802,-0.786,-0.093,30.212,4.383,6.949
-0.802,-0.786,-0.092,31.484,4.093,7.605
-0.802,-0.784,-0.091,32.876,3.859,8.247
-0.803,-0.782,-0.090,34.234,3.663,8.896
-0.804,-0.780,-0.088,35.551,3.500,9.508
-0.804,-0.778,-0.084,36.819,3.376,10.083
-0.805,-0.775,-0.081,37.984,3.282,10.634
-0.804,-0.772,-0.079,39.015,3.248,11.144
-0.804,-0.769,-0.076,39.935,3.298,11.620
-0.803,-0.765,-0.074,40.776,3.445,12.066
-0.802,-0.761,-0.072,41.522,3.760,12.494
-0.801,-0.757,-0.070,42.201,4.223,12.891
-0.799,-0.754,-0.068,42.843,4.823,13.244
-0.799,-0.752,-0.065,43.385,5.499,13.509
-0.799,-0.750,-0.062,43.875,6.221,13.721
-0.798,-0.748,-0.060,44.288,6.976,13.877
-0.798,-0.747,-0.058,44.587,7.737,13.994
-0.798,-0.744,-0.057,44.649,8.488,14.056
-0.797,-0.741,-0.057,44.439,9.261,14.077
-0.796,-0.737,-0.058,43.881,10.099,14.071
-0.794,-0.733,-0.059,43.116,11.013,14.040
-0.792,-0.728,-0.061,42.105,12.048,13.980
-0.789,-0.725,-0.064,40.845,13.392,13.879
-0.785,-0.722,-0.066,39.610,15.044,13.729
-0.780,-0.721,-0.066,38.647,16.932,13.529
-0.775,-0.723,-0.066,38.024,18.980,13.271
-0.769,-0.728,-0.065,37.834,21.079,12.963
-0.764,-0.734,-0.065,38.356,23.096,12.585
-0.759,-0.738,-0.065,39.635,24.937,12.129
-0.753,-0.740,-0.067,41.483,26.645,11.592
-0.747,-0.740,-0.068,43.568,28.174,10.903
-0.741,-0.738,-0.070,45.303,29.485,10.102
-0.736,-0.732,-0.072,46.398,30.593,9.165
-0.731,-0.725,-0.075,46.749,31.610,8.024
-0.726,-0.719,-0.078,46.541,32.656,6.733
-0.719,-0.714,-0.081,46.008,33.850,5.337
-0.713,-0.710,-0.084,45.477,35.255,3.791
-0.705,-0.709,-0.086,45.162,37.039,2.043
-0.698,-0.709,-0.086,45.305,39.142,0.098
-0.689,-0.710,-0.085,46.107,41.590,-2.113
-0.681,-0.711,-0.083,47.989,44.363,-4.939
-0.673,-0.715,-0.081,50.384,47.036,-7.783
-0.668,-0.717,-0.080,53.243,49.287,-10.415
-0.663,-0.715,-0.082,56.035,51.011,-13.183
-0.658,-0.710,-0.083,57.947,52.289,-16.247
-0.652,-0.703,-0.085,58.597,53.195,-19.784
-0.647,-0.699,-0.088,58.728,53.832,-23.527
-0.641,-0.697,-0.093,58.776,54.333,-27.359
-0.635,-0.699,-0.098,59.217,54.918,-31.238
-0.626,-0.704,-0.104,60.995,55.705,-35.295
-0.617,-0.711,-0.109,64.522,56.770,-39.397
-0.607,-0.721,-0.113,70.517,58.006,-43.623

-0.749,-0.226,0.943,63.893,54.223,-43.257
-0.758,-0.212,0.963,55.355,52.508,-43.905
-0.768,-0.204,0.978,45.193,51.553,-45.668
-0.777,-0.207,0.988,34.423,50.820,-48.167
-0.784,-0.219,0.991,24.875,50.324,-50.481
-0.788,-0.238,0.988,17.524,50.028,-52.211
-0.792,-0.263,0.981,12.801,49.744,-53.178
-0.795,-0.291,0.971,10.392,49.378,-53.418
-0.798,-0.318,0.960,9.910,48.950,-52.848
-0.802,-0.341,0.947,9.989,48.565,-51.977
-0.807,-0.358,0.933,10.300,48.338,-50.986
-0.812,-0.370,0.917,10.534,48.184,-49.976
-0.818,-0.377,0.901,10.494,48.009,-49.083
-0.824,-0.382,0.886,10.031,47.763,-48.384
-0.829,-0.386,0.873,9.395,47.498,-47.876
-0.833,-0.391,0.861,8.908,47.256,-47.289
-0.836,-0.397,0.849,8.719,47.045,-46.537
-0.839,-0.403,0.836,8.900,46.704,-45.495
-0.842,-0.410,0.822,9.904,46.117,-43.608
-0.845,-0.416,0.807,11.484,45.054,-40.689
-0.848,-0.420,0.791,13.442,41.811,-37.135
-0.850,-0.421,0.775,15.339,38.423,-33.817
-0.849,-0.420,0.759,16.722,35.078,-31.322
-0.846,-0.418,0.744,17.283,32.367,-29.989
-0.842,-0.417,0.729,17.450,30.448,-29.161
-0.839,-0.418,0.714,17.448,29.129,-28.484
-0.837,-0.421,0.699,17.379,28.080,-27.852
-0.837,-0.425,0.683,17.328,27.008,-27.246
-0.836,-0.430,0.668,17.418,25.882,-26.624
-0.835,-0.435,0.653,17.640,24.738,-25.970
-0.835,-0.439,0.641,17.904,23.685,-25.260
-0.834,-0.441,0.630,18.100,22.779,-24.550
-0.833,-0.442,0.619,18.189,22.037,-23.903
-0.832,-0.443,0.608,18.137,21.447,-23.319
-0.831,-0.444,0.598,18.023,20.977,-22.758
-0.830,-0.445,0.588,17.834,20.595,-22.230
-0.830,-0.446,0.578,17.531,20.323,-21.763
-0.829,-0.447,0.567,17.153,20.131,-21.338
-0.829,-0.449,0.557,16.754,19.964,-20.925
-0.829,-0.451,0.547,16.418,19.774,-20.513
-0.829,-0.453,0.538,16.171,19.538,-20.083
-0.830,-0.456,0.529,15.958,19.244,-19.627
-0.830,-0.457,0.520,15.758,18.908,-19.172
-0.830,-0.459,0.511,15.543,18.524,-18.722
-0.830,-0.460,0.503,15.289,18.043,-18.273
-0.830,-0.461,0.495,14.979,17.451,-17.833
-0.830,-0.461,0.488,14.589,16.778,-17.414
-0.830,-0.462,0.481,14.114,16.079,-17.023
-0.830,-0.463,0.474,13.567,15.370,-16.649
-0.830,-0.464,0.467,12.971,14.665,-16.292
-0.830,-0.466,0.460,12.434,13.971,-15.934
-0.831,-0.469,0.453,11.982,13.259,-15.552
-0.831,-0.471,0.447,11.617,12.520,-15.125
-0.830,-0.472,0.442,11.288,11.815,-14.678
-0.830,-0.474,0.437,10.930,11.135,-14.214
-0.829,-0.475,0.431,10.583,10.485,-13.728
-0.828,-0.477,0.427,10.286,9.846,-13.214
-0.828,-0.479,0.423,10.047,9.165,-12.680
-0.828,-0.480,0.420,9.857,8.493,-12.134
-0.827,-0.482,0.418,9.702,7.924,-11.603
-0.826,-0.483,0.416,9.584,7.505,-11.102
-0.825,-0.484,0.414,9.507,7.225,-10.632
-0.825,-0.485,0.411,9.451,7.085,-10.217
-0.824,-0.485,0.408,9.416,7.024,-9.842
-0.824,-0.486,0.406,9.396,7.013,-9.494
-0.824,-0.487,0.403,9.347,7.038,-9.181
-0.824,-0.487,0.400,9.235,7.091,-8.908
-0.824,-0.488,0.397,9.062,7.163,-8.676
-0.823,-0.489,0.393,8.881,7.226,-8.462
-0.823,-0.491,0.390,8.733,7.273,-8.244
-0.823,-0.493,0.387,8.669,7.283,-8.011
-0.823,-0.495,0.384,8.687,7.249,-7.767
-0.823,-0.496,0.383,8.777,7.169,-7.498
-0.822,-0.497,0.382,8.929,7.067,-7.240
-0.822,-0.497,0.381,9.112,6.969,-7.007
-0.822,-0.497,0.382,9.357,6.880,-6.799
-0.822,-0.497,0.383,9.646,6.810,-6.623
-0.821,-0.496,0.385,9.961,6.808,-6.496
-0.821,-0.495,0.387,10.267,6.912,-6.412
-0.820,-0.494,0.390,10.499,7.151,-6.371
-0.820,-0.493,0.393,10.622,7.607,-6.394
-0.819,-0.492,0.396,10.658,8.265,-6.479
-0.819,-0.491,0.400,10.619,9.161,-6.625
-0.818,-0.491,0.403,10.576,10.230,-6.836
-0.818,-0.492,0.406,10.677,11.503,-7.064
-0.817,-0.493,0.409,10.996,13.006,-7.287
-0.817,-0.493,0.412,11.591,14.852,-7.503
-0.817,-0.493,0.414,12.422,16.888,-7.711
-0.817,-0.492,0.417,13.394,19.025,-7.914
-0.818,-0.490,0.419,14.412,21.233,-8.169
-0.819,-0.488,0.422,15.394,23.463,-8.502
-0.819,-0.486,0.424,16.272,25.791,-8.936
-0.820,-0.484,0.425,17.007,28.238,-9.457
-0.821,-0.482,0.427,17.583,30.715,-10.049
-0.823,-0.481,0.428,17.994,33.120,-10.701
-0.825,-0.482,0.430,18.386,35.407,-11.350
-0.827,-0.483,0.431,18.907,37.703,-11.921
-0.828,-0.486,0.432,19.683,40.088,-12.366
-0.830,-0.490,0.432,20.729,42.593,-12.661
-0.832,-0.492,0.433,22.098,45.144,-12.807
-0.834,-0.495,0.433,23.640,47.703,-12.885
-0.837,-0.497,0.433,25.288,50.214,-12.928
-0.840,-0.498,0.432,26.976,52.701,-12.987
-0.843,-0.498,0.431,28.615,55.221,-13.087
-0.847,-0.497,0.430,30.136,57.761,-13.260
-0.850,-0.496,0.429,31.449,60.354,-13.536
-0.854,-0.494,0.427,32.436,62.963,-13.915
-0.857,-0.491,0.424,33.124,65.534,-14.374
-0.860,-0.488,0.422,33.347,67.931,-15.002
-0.863,-0.485,0.419,33.284,70.151,-15.758
-0.866,-0.483,0.416,33.038,72.082,-16.657
-0.869,-0.482,0.413,32.733,73.818,-17.697
-0.871,-0.486,0.409,32.540,75.548,-18.853
-0.872,-0.488,0.404,32.567,77.465,-20.010
-0.873,-0.491,0.399,32.905,79.646,-21.148
-0.874,-0.494,0.392,33.486,82.299,-22.226
-0.876,-0.496,0.385,34.054,85.180,-23.258
-0.877,-0.495,0.378,34.225,88.048,-24.366
-0.878,-0.493,0.370,33.995,90.668,-25.659

-0.856,-0.627,0.442,30.064,62.647,-23.127
-0.859,-0.630,0.452,26.220,39.470,-20.660
-0.866,-0.630,0.464,22.346,19.282,-18.646
-0.875,-0.624,0.478,17.895,1.622,-16.830
-0.884,-0.614,0.494,12.094,-13.175,-15.381
-0.893,-0.601,0.513,5.304,-25.277,-14.320
-0.902,-0.586,0.534,-2.752,-33.561,-13.750
-0.909,-0.570,0.555,-14.751,-38.898,-13.693
-0.914,-0.555,0.574,-26.838,-41.399,-14.156
-0.915,-0.543,0.590,-39.253,-40.735,-14.973
-0.914,-0.537,0.601,-50.791,-38.826,-16.256
-0.911,-0.543,0.610,-58.803,-34.838,-18.223
-0.909,-0.551,0.616,-63.627,-29.153,-20.451
-0.907,-0.562,0.620,-66.144,-22.238,-22.732
-0.905,-0.573,0.620,-67.427,-15.213,-25.065
-0.904,-0.585,0.617,-67.914,-8.237,-27.352
-0.903,-0.596,0.612,-68.001,-1.304,-29.349
-0.902,-0.609,0.602,-67.606,5.923,-31.011
-0.902,-0.621,0.589,-66.709,13.158,-32.399
-0.901,-0.632,0.575,-65.382,20.057,-33.584
-0.900,-0.642,0.559,-63.985,26.407,-34.734
-0.898,-0.650,0.541,-62.613,32.113,-35.891
-0.896,-0.656,0.523,-61.290,37.276,-37.045
-0.894,-0.662,0.504,-60.009,42.244,-38.224
-0.892,-0.667,0.485,-58.683,47.369,-39.401
-0.890,-0.672,0.466,-57.248,53.082,-40.467
-0.888,-0.677,0.449,-55.741,58.738,-41.277
-0.886,-0.682,0.431,-54.185,63.729,-41.534
-0.886,-0.687,0.414,-52.655,67.112,-41.229
-0.888,-0.693,0.397,-51.133,68.082,-40.494
-0.891,-0.700,0.380,-49.636,67.213,-39.481
-0.893,-0.707,0.364,-48.218,64.940,-37.607
-0.896,-0.713,0.348,-46.845,60.081,-35.413
-0.896,-0.719,0.336,-45.504,53.734,-33.012
-0.895,-0.723,0.322,-44.113,47.339,-30.666
-0.892,-0.727,0.310,-42.742,42.270,-28.555
-0.888,-0.730,0.298,-41.338,38.614,-26.690
-0.883,-0.731,0.286,-39.904,36.206,-25.152
-0.879,-0.733,0.273,-38.407,34.322,-23.893
-0.875,-0.733,0.260,-36.819,32.740,-22.809
-0.872,-0.733,0.247,-35.177,31.354,-21.800
-0.869,-0.732,0.234,-33.537,30.065,-20.822
-0.865,-0.731,0.222,-31.967,28.831,-19.850
-0.862,-0.729,0.211,-30.506,27.628,-18.921
-0.858,-0.727,0.199,-29.120,26.453,-18.024
-0.854,-0.725,0.188,-27.830,25.247,-17.172
-0.849,-0.723,0.178,-26.704,24.071,-16.382
-0.844,-0.721,0.168,-25.696,22.978,-15.632
-0.839,-0.719,0.159,-24.738,21.981,-14.916
-0.833,-0.718,0.150,-23.796,21.077,-14.229
-0.828,-0.717,0.142,-22.859,20.265,-13.549
-0.822,-0.717,0.134,-21.972,19.554,-12.859
-0.816,-0.716,0.127,-21.162,18.978,-12.171
-0.811,-0.715,0.120,-20.400,18.466,-11.504
-0.806,-0.713,0.114,-19.696,17.994,-10.886
-0.802,-0.711,0.108,-19.080,17.560,-10.309
-0.798,-0.709,0.103,-18.547,17.110,-9.795
-0.795,-0.707,0.098,-18.137,16.613,-9.361
-0.791,-0.705,0.094,-17.868,16.096,-8.998
-0.789,-0.704,0.090,-17.681,15.614,-8.661
-0.786,-0.705,0.086,-17.478,15.215,-8.356
-0.783,-0.707,0.082,-17.165,14.986,-8.051
-0.780,-0.710,0.078,-16.730,14.872,-7.715
-0.778,-0.713,0.075,-16.171,14.884,-7.324
-0.775,-0.717,0.072,-15.538,15.014,-6.887
-0.774,-0.721,0.069,-14.808,15.298,-6.395
-0.772,-0.725,0.067,-13.956,15.704,-5.862
-0.772,-0.728,0.065,-13.030,16.222,-5.290
-0.772,-0.731,0.063,-12.066,16.838,-4.692
-0.772,-0.733,0.061,-11.127,17.500,-4.087
-0.774,-0.734,0.059,-10.239,18.171,-3.475
-0.776,-0.735,0.058,-9.401,18.804,-2.854
-0.778,-0.736,0.057,-8.594,19.366,-2.236
-0.781,-0.737,0.057,-7.748,19.835,-1.598
-0.784,-0.738,0.057,-6.834,20.190,-0.911
-0.787,-0.738,0.058,-5.845,20.464,-0.164
-0.791,-0.738,0.059,-4.795,20.691,0.655
-0.795,-0.738,0.060,-3.587,20.923,1.530
-0.798,-0.739,0.060,-2.226,21.153,2.488
-0.801,-0.740,0.059,-0.692,21.378,3.535
-0.803,-0.741,0.057,1.053,21.592,4.666
-0.806,-0.742,0.056,3.060,21.779,5.898
-0.808,-0.744,0.055,5.463,21.925,7.252
-0.811,-0.746,0.054,8.095,22.041,8.682
-0.814,-0.747,0.054,10.909,22.143,10.176
-0.817,-0.747,0.054,13.815,22.261,11.692
-0.821,-0.746,0.055,16.632,22.429,13.185
-0.825,-0.743,0.056,19.272,22.684,14.625
-0.830,-0.739,0.056,21.548,23.046,15.888
-0.834,-0.734,0.056,23.411,23.507,16.928
-0.838,-0.727,0.057,24.778,24.033,17.692
-0.842,-0.720,0.057,25.620,24.650,18.169
-0.845,-0.713,0.057,26.022,25.352,18.382
-0.848,-0.706,0.057,26.092,26.190,18.328
-0.850,-0.700,0.056,25.901,27.207,18.122
-0.851,-0.694,0.056,25.605,28.381,17.790
-0.851,-0.690,0.054,25.278,29.749,17.383
-0.851,-0.686,0.052,24.994,31.417,16.939
-0.850,-0.683,0.049,24.759,33.311,16.465
-0.849,-0.680,0.047,24.586,35.359,15.947
-0.848,-0.676,0.044,24.449,37.486,15.344
-0.848,-0.672,0.041,24.282,39.620,14.652
-0.847,-0.667,0.038,24.023,41.725,13.841
-0.846,-0.663,0.036,23.666,43.845,12.897
-0.844,-0.658,0.033,23.173,45.957,11.762
-0.841,-0.653,0.030,22.479,48.095,10.469
-0.838,-0.647,0.027,21.625,50.386,9.003
-0.833,-0.642,0.023,20.606,52.985,7.371
-0.827,-0.638,0.017,19.470,56.093,5.589
-0.821,-0.633,0.011,18.213,59.470,3.623
-0.814,-0.629,0.003,16.826,63.076,1.464
-0.808,-0.625,-0.005,15.176,66.787,-0.942
-0.801,-0.621,-0.013,13.413,70.358,-3.553
-0.795,-0.618,-0.022,11.548,73.687,-6.389
-0.787,-0.617,-0.031,9.603,76.793,-9.376
-0.779,-0.617,-0.040,7.751,79.726,-12.509
-0.771,-0.618,-0.049,6.125,82.623,-15.598
-0.760,-0.621,-0.058,4.806,85.757,-18.491
-0.750,-0.624,-0.067,3.831,89.127,-21.113

-0.950,-0.702,0.281,4.231,82.424,-19.188
-0.964,-0.682,0.302,4.397,76.546,-18.289
-0.978,-0.655,0.321,3.900,72.637,-18.036
-0.989,-0.622,0.340,1.930,70.705,-18.496
-0.995,-0.592,0.358,-2.771,69.781,-19.960
-0.994,-0.570,0.373,-10.400,70.361,-22.690
-0.989,-0.564,0.376,-17.032,74.185,-26.475
-0.986,-0.565,0.373,-20.411,81.508,-31.185
-0.987,-0.572,0.369,-21.762,89.998,-35.872
-0.989,-0.582,0.364,-22.763,98.750,-38.603
-0.990,-0.595,0.356,-23.642,106.386,-39.718
-0.993,-0.611,0.344,-23.920,109.892,-40.033
-0.997,-0.632,0.333,-23.297,109.852,-40.273
-0.999,-0.652,0.323,-22.328,107.924,-40.718
-0.998,-0.669,0.317,-21.319,105.385,-41.161
-0.993,-0.681,0.310,-20.613,102.478,-41.405
-0.988,-0.690,0.304,-20.185,100.141,-41.401
-0.984,-0.698,0.295,-19.739,98.395,-41.300
-0.980,-0.705,0.283,-19.137,96.840,-41.149
-0.977,-0.710,0.270,-18.250,95.676,-40.929
-0.974,-0.712,0.255,-17.074,94.737,-40.642
-0.971,-0.714,0.238,-15.682,93.575,-40.207
-0.970,-0.715,0.221,-14.219,91.976,-39.505
-0.968,-0.715,0.204,-13.048,90.325,-38.787
-0.965,-0.715,0.183,-11.689,88.225,-38.009
-0.962,-0.717,0.166,-10.540,84.858,-36.886
-0.957,-0.720,0.150,-9.685,80.871,-35.307
-0.951,-0.722,0.134,-8.847,76.060,-33.414
-0.944,-0.723,0.119,-8.052,70.345,-31.402
-0.938,-0.724,0.107,-7.433,63.892,-29.375
-0.929,-0.725,0.095,-6.946,57.696,-27.390
-0.920,-0.725,0.086,-6.516,51.970,-25.511
-0.912,-0.724,0.078,-6.128,46.812,-23.827
-0.904,-0.722,0.071,-5.808,42.565,-22.387
-0.895,-0.721,0.064,-5.544,39.140,-21.151
-0.886,-0.719,0.058,-5.256,36.375,-20.079
-0.877,-0.718,0.052,-4.933,34.018,-19.142
-0.868,-0.716,0.047,-4.615,32.042,-18.333
-0.860,-0.715,0.041,-4.382,30.310,-17.630
-0.851,-0.714,0.036,-4.373,28.729,-17.002
-0.842,-0.713,0.031,-4.563,27.211,-16.458
-0.833,-0.714,0.025,-4.865,25.683,-15.975
-0.825,-0.716,0.019,-5.218,24.180,-15.505
-0.816,-0.718,0.014,-5.561,22.779,-15.012
-0.807,-0.721,0.008,-5.860,21.577,-14.479
-0.799,-0.724,0.003,-6.100,20.551,-13.910
-0.792,-0.727,-0.002,-6.210,19.669,-13.311
-0.785,-0.729,-0.007,-6.258,18.904,-12.727
-0.779,-0.730,-0.012,-6.314,18.231,-12.184
-0.773,-0.731,-0.016,-6.439,17.610,-11.704
-0.768,-0.732,-0.020,-6.624,17.066,-11.276
-0.763,-0.734,-0.023,-6.810,16.576,-10.890
-0.759,-0.736,-0.025,-7.014,16.131,-10.531
-0.755,-0.738,-0.027,-7.243,15.772,-10.169
-0.751,-0.741,-0.029,-7.486,15.517,-9.753
-0.747,-0.745,-0.032,-7.687,15.283,-9.283
-0.744,-0.748,-0.034,-7.806,15.043,-8.730
-0.742,-0.752,-0.038,-7.737,14.662,-8.101
-0.740,-0.756,-0.041,-7.572,14.429,-7.491
-0.737,-0.758,-0.045,-7.396,14.274,-6.838
-0.736,-0.761,-0.049,-7.121,14.170,-6.276
-0.734,-0.764,-0.053,-6.787,14.060,-5.747
-0.733,-0.766,-0.056,-6.416,13.896,-5.203
-0.732,-0.769,-0.058,-5.999,13.681,-4.656
-0.732,-0.771,-0.060,-5.512,13.395,-4.103
-0.731,-0.772,-0.061,-4.957,13.072,-3.506
-0.730,-0.773,-0.062,-4.348,12.735,-2.888
-0.729,-0.773,-0.064,-3.694,12.457,-2.279
-0.728,-0.773,-0.065,-3.084,12.260,-1.690
-0.727,-0.772,-0.067,-2.556,12.158,-1.153
-0.725,-0.771,-0.070,-2.107,12.120,-0.683
-0.723,-0.770,-0.074,-1.742,12.123,-0.276
-0.721,-0.770,-0.078,-1.389,12.131,0.116
-0.719,-0.769,-0.083,-1.035,12.099,0.510
-0.717,-0.769,-0.088,-0.655,12.000,0.927
-0.715,-0.769,-0.093,-0.199,11.792,1.389
-0.713,-0.769,-0.096,0.303,11.444,1.906
-0.711,-0.769,-0.099,0.833,10.922,2.511
-0.709,-0.769,-0.101,1.404,10.320,3.217
-0.707,-0.768,-0.102,2.050,9.695,4.015
-0.706,-0.766,-0.103,2.734,9.089,4.821
-0.704,-0.762,-0.104,3.429,8.551,5.561
-0.702,-0.759,-0.104,4.084,8.061,6.171
-0.700,-0.755,-0.104,4.660,7.642,6.588
-0.698,-0.750,-0.103,5.117,7.321,6.861
-0.696,-0.746,-0.102,5.517,7.105,6.988
-0.695,-0.741,-0.100,5.859,7.014,6.984
-0.694,-0.736,-0.098,6.112,7.056,6.887
-0.692,-0.731,-0.097,6.260,7.243,6.693
-0.691,-0.728,-0.095,6.411,7.483,6.386
-0.691,-0.728,-0.093,6.609,7.724,5.963
-0.690,-0.728,-0.089,6.912,8.033,5.531
-0.691,-0.730,-0.085,7.394,8.394,5.223
-0.693,-0.734,-0.081,8.328,8.785,5.072
-0.697,-0.738,-0.073,9.267,9.011,5.054
-0.704,-0.741,-0.067,10.627,9.227,4.967
-0.711,-0.741,-0.059,12.025,9.655,4.716
-0.719,-0.740,-0.050,13.096,10.500,4.379
-0.727,-0.740,-0.043,14.108,11.690,3.924
-0.737,-0.739,-0.036,15.022,13.177,3.412
-0.748,-0.738,-0.033,15.866,14.584,2.878
-0.759,-0.738,-0.031,16.712,15.713,2.355
-0.770,-0.739,-0.030,17.552,16.528,1.900
-0.781,-0.740,-0.029,18.426,17.105,1.539
-0.790,-0.741,-0.028,19.390,17.638,1.228
-0.799,-0.742,-0.027,20.486,18.396,0.939
-0.807,-0.743,-0.025,21.720,19.523,0.656
-0.815,-0.744,-0.022,23.169,21.081,0.319
-0.822,-0.745,-0.020,24.729,23.128,-0.098
-0.830,-0.744,-0.018,26.354,25.668,-0.611
-0.837,-0.743,-0.016,27.962,28.449,-1.243
-0.844,-0.742,-0.014,29.502,31.404,-2.068
-0.850,-0.740,-0.012,30.944,34.439,-3.070
-0.855,-0.737,-0.010,32.302,37.489,-4.298
-0.858,-0.735,-0.008,33.522,40.558,-5.759
-0.861,-0.732,-0.006,34.486,43.799,-7.580
-0.862,-0.729,-0.004,35.186,47.529,-9.727
-0.862,-0.725,-0.004,35.693,51.724,-12.175
-0.859,-0.721,-0.005,35.926,56.283,-15.122

-0.812,-0.764,0.377,39.041,60.988,-11.556
-0.818,-0.737,0.425,42.620,72.684,-8.908
-0.827,-0.699,0.458,45.050,89.405,-7.632
-0.843,-0.666,0.479,46.896,109.581,-7.815
-0.862,-0.626,0.491,48.250,131.528,-10.070
-0.882,-0.592,0.493,48.241,151.578,-14.174
-0.900,-0.567,0.484,46.768,167.760,-19.731
-0.901,-0.553,0.463,42.817,184.017,-25.046
-0.907,-0.552,0.434,36.484,197.880,-27.547
-0.913,-0.570,0.398,31.063,205.613,-29.232
-0.920,-0.602,0.364,28.634,205.352,-30.258
-0.928,-0.637,0.335,28.545,199.960,-31.135
-0.934,-0.671,0.310,31.480,195.398,-31.836
-0.934,-0.694,0.290,37.059,188.363,-31.510
-0.929,-0.705,0.277,41.856,180.925,-30.538
-0.928,-0.707,0.272,44.652,174.246,-29.155
-0.930,-0.704,0.267,45.581,167.924,-27.916
-0.932,-0.695,0.261,44.848,161.203,-27.305
-0.935,-0.685,0.253,43.533,153.904,-27.085
-0.935,-0.676,0.242,41.172,146.154,-27.234
-0.934,-0.671,0.226,38.283,138.256,-28.084
-0.928,-0.668,0.212,34.788,130.249,-28.806
-0.922,-0.669,0.190,32.221,122.855,-29.669
-0.915,-0.673,0.171,29.922,116.064,-30.167
-0.903,-0.679,0.150,27.957,110.355,-30.350
-0.894,-0.687,0.128,26.586,105.018,-30.421
-0.884,-0.695,0.108,25.508,99.392,-30.196
-0.874,-0.704,0.089,24.857,93.171,-29.593
-0.863,-0.712,0.073,24.495,86.341,-28.661
-0.853,-0.718,0.060,24.245,79.148,-27.335
-0.844,-0.722,0.050,23.997,71.852,-25.739
-0.834,-0.724,0.043,23.695,64.857,-24.027
-0.825,-0.725,0.039,23.136,58.558,-22.340
-0.816,-0.725,0.036,22.284,53.210,-20.812
-0.807,-0.726,0.033,21.195,48.888,-19.469
-0.797,-0.728,0.030,19.971,45.826,-18.293
-0.788,-0.730,0.026,18.710,43.624,-17.277
-0.779,-0.733,0.022,17.567,42.113,-16.346
-0.770,-0.735,0.017,16.600,41.233,-15.512
-0.762,-0.737,0.011,15.797,40.649,-14.743
-0.755,-0.739,0.005,15.192,40.211,-14.029
-0.748,-0.739,-0.001,14.745,39.840,-13.326
-0.742,-0.738,-0.007,14.362,39.456,-12.628
-0.737,-0.736,-0.013,13.927,39.039,-11.966
-0.733,-0.734,-0.019,13.215,38.573,-11.416
-0.729,-0.730,-0.026,12.224,37.981,-11.008
-0.726,-0.728,-0.032,10.913,37.152,-10.726
-0.722,-0.725,-0.038,9.191,36.159,-10.590
-0.718,-0.724,-0.044,7.261,35.075,-10.538
-0.715,-0.724,-0.050,5.235,33.984,-10.545
-0.710,-0.726,-0.057,3.219,32.902,-10.547
-0.706,-0.730,-0.064,1.544,31.845,-10.527
-0.701,-0.735,-0.071,0.285,30.889,-10.466
-0.696,-0.740,-0.079,-0.546,30.125,-10.335
-0.692,-0.744,-0.085,-0.995,29.444,-10.155
-0.689,-0.747,-0.090,-1.183,28.817,-9.944
-0.686,-0.749,-0.095,-1.376,28.200,-9.713
-0.684,-0.750,-0.100,-1.617,27.452,-9.525
-0.682,-0.750,-0.104,-2.069,26.527,-9.412
-0.681,-0.750,-0.108,-2.708,25.429,-9.368
-0.680,-0.751,-0.112,-3.491,24.219,-9.397
-0.678,-0.752,-0.116,-4.351,23.051,-9.472
-0.675,-0.754,-0.120,-5.145,21.989,-9.564
-0.672,-0.758,-0.123,-5.804,21.044,-9.616
-0.669,-0.761,-0.127,-6.279,20.201,-9.623
-0.666,-0.765,-0.130,-6.601,19.457,-9.577
-0.663,-0.768,-0.133,-6.723,18.788,-9.471
-0.660,-0.772,-0.136,-6.720,18.218,-9.304
-0.656,-0.774,-0.139,-6.555,17.697,-9.058
-0.654,-0.776,-0.142,-6.267,17.123,-8.754
-0.652,-0.776,-0.143,-5.975,16.530,-8.428
-0.650,-0.776,-0.145,-5.713,15.964,-8.098
-0.649,-0.775,-0.146,-5.507,15.414,-7.827
-0.648,-0.775,-0.147,-5.386,14.882,-7.606
-0.647,-0.774,-0.148,-5.357,14.405,-7.420
-0.646,-0.773,-0.149,-5.401,13.976,-7.273
-0.646,-0.772,-0.150,-5.517,13.588,-7.152
-0.646,-0.773,-0.151,-5.616,13.217,-7.025
-0.647,-0.774,-0.152,-5.634,12.794,-6.846
-0.647,-0.776,-0.153,-5.474,12.302,-6.464
-0.648,-0.779,-0.155,-5.092,11.699,-6.042
-0.650,-0.782,-0.155,-4.528,11.157,-5.604
-0.651,-0.783,-0.154,-3.863,10.701,-5.097
-0.653,-0.784,-0.153,-3.089,10.300,-4.496
-0.655,-0.785,-0.152,-2.258,9.849,-3.730
-0.659,-0.785,-0.149,-1.368,9.014,-2.635
-0.664,-0.786,-0.150,-0.266,7.802,-1.913
-0.668,-0.782,-0.147,0.709,7.096,-1.644
-0.668,-0.778,-0.146,1.237,7.064,-1.400
-0.669,-0.776,-0.145,1.654,7.308,-1.251
-0.672,-0.776,-0.145,2.272,7.595,-1.181
-0.674,-0.776,-0.146,2.996,7.831,-1.025
-0.677,-0.776,-0.148,3.702,7.913,-0.721
-0.679,-0.777,-0.150,4.432,7.811,-0.267
-0.682,-0.777,-0.151,5.231,7.529,0.308
-0.684,-0.777,-0.152,6.027,7.181,0.902
-0.685,-0.775,-0.153,6.722,6.924,1.437
-0.685,-0.774,-0.156,7.296,6.970,1.888
-0.684,-0.773,-0.158,7.808,7.176,2.218
-0.683,-0.772,-0.160,8.341,7.472,2.398
-0.682,-0.772,-0.163,8.859,7.851,2.536
-0.681,-0.772,-0.167,9.348,8.365,2.679
-0.679,-0.771,-0.171,9.827,8.885,2.820
-0.677,-0.771,-0.175,10.270,9.330,2.969
-0.675,-0.770,-0.179,10.619,9.693,3.168
-0.672,-0.768,-0.184,10.825,9.972,3.391
-0.669,-0.766,-0.189,10.883,10.150,3.584
-0.665,-0.764,-0.194,10.819,10.220,3.733
-0.661,-0.763,-0.199,10.575,10.182,3.828
-0.656,-0.762,-0.203,10.215,10.067,3.894
-0.651,-0.760,-0.206,9.784,9.931,3.922
-0.646,-0.759,-0.209,9.329,9.835,3.924
-0.641,-0.757,-0.212,8.811,9.775,3.884
-0.636,-0.755,-0.215,8.225,9.777,3.812
-0.631,-0.753,-0.219,7.487,9.809,3.722
-0.625,-0.753,-0.224,6.655,9.827,3.617
-0.619,-0.753,-0.229,5.778,9.765,3.509
-0.613,-0.754,-0.232,4.932,9.597,3.395
-0.608,-0.755,-0.236,4.150,9.370,3.298

0.478,-1.124,-0.324,20.522,16.777,-0.165
0.502,-1.131,-0.305,36.970,26.736,-1.486
0.513,-1.127,-0.292,50.956,38.769,-1.484
0.519,-1.115,-0.285,60.426,49.142,-0.421
0.516,-1.096,-0.286,62.932,55.712,2.289
0.509,-1.077,-0.291,62.166,57.405,5.613
0.497,-1.057,-0.295,59.021,55.284,8.958
0.487,-1.039,-0.298,51.629,48.557,11.981
0.482,-1.024,-0.297,38.130,37.274,14.761
0.482,-1.015,-0.293,23.626,23.490,17.824
0.486,-1.007,-0.287,9.063,8.239,21.311
0.492,-1.001,-0.280,-4.331,-8.500,25.194
0.502,-0.995,-0.272,-15.702,-25.570,29.429
0.514,-0.990,-0.266,-24.357,-42.459,34.364
0.527,-0.984,-0.259,-31.039,-58.905,39.761
0.542,-0.978,-0.255,-35.868,-75.009,45.489
0.555,-0.971,-0.252,-38.817,-90.102,51.425
0.568,-0.966,-0.251,-39.842,-103.659,57.199
0.579,-0.961,-0.252,-40.035,-115.256,62.805
0.588,-0.955,-0.255,-39.815,-125.120,68.287
0.596,-0.946,-0.257,-39.431,-134.469,73.517
0.602,-0.936,-0.257,-39.056,-144.131,78.253
0.607,-0.927,-0.255,-38.998,-153.829,82.409
0.610,-0.920,-0.253,-39.427,-162.022,85.969
0.611,-0.916,-0.253,-40.333,-168.385,88.718
0.609,-0.914,-0.254,-41.295,-173.169,90.793
0.605,-0.913,-0.256,-42.361,-176.571,92.447
0.599,-0.911,-0.257,-43.608,-179.360,93.797
0.590,-0.910,-0.259,-45.367,-181.556,94.831
0.577,-0.908,-0.262,-47.412,-183.170,95.417
0.560,-0.907,-0.266,-49.447,-184.448,95.421
0.539,-0.907,-0.269,-51.229,-185.728,94.675
0.517,-0.908,-0.271,-52.615,-186.920,93.645
0.493,-0.909,-0.270,-53.572,-188.142,92.456
0.468,-0.912,-0.266,-54.276,-189.057,91.238
0.442,-0.915,-0.260,-54.855,-189.395,90.068
0.415,-0.920,-0.252,-55.221,-189.028,89.021
0.388,-0.927,-0.242,-55.376,-188.205,88.119
0.359,-0.933,-0.228,-55.289,-186.844,87.337
0.325,-0.939,-0.214,-55.051,-184.827,86.590
0.289,-0.944,-0.199,-54.649,-182.103,85.730
0.250,-0.947,-0.183,-54.229,-178.868,84.658
0.209,-0.948,-0.164,-53.754,-175.018,83.432
0.169,-0.950,-0.145,-53.410,-171.124,81.859
0.127,-0.950,-0.122,-53.391,-167.327,80.448
0.086,-0.951,-0.097,-53.420,-163.983,79.219
0.047,-0.950,-0.070,-53.162,-160.504,78.024
0.009,-0.944,-0.037,-52.901,-156.594,76.784
-0.022,-0.927,-0.005,-52.459,-151.905,75.350
-0.051,-0.905,0.030,-52.461,-146.599,73.583
-0.077,-0.878,0.075,-54.131,-134.223,71.791
-0.091,-0.850,0.108,-56.036,-108.872,70.062
-0.102,-0.829,0.122,-54.939,-68.562,67.312
-0.130,-0.808,0.130,-51.967,-21.314,62.034
-0.164,-0.786,0.130,-47.064,27.352,54.698
-0.198,-0.766,0.123,-43.595,74.530,47.520
-0.234,-0.753,0.111,-41.882,111.444,42.358
-0.276,-0.747,0.098,-41.008,127.044,38.902
-0.318,-0.748,0.080,-41.271,130.720,36.444
-0.355,-0.755,0.065,-41.974,128.589,33.784
-0.386,-0.771,0.054,-41.758,125.470,30.445
-0.409,-0.788,0.046,-41.005,118.199,27.324
-0.423,-0.801,0.042,-40.292,111.455,25.311
-0.434,-0.813,0.036,-39.675,107.133,24.212
-0.446,-0.824,0.028,-38.717,104.752,23.692
-0.460,-0.833,0.018,-37.220,102.484,23.382
-0.474,-0.838,0.006,-34.704,100.267,23.239
-0.490,-0.838,-0.006,-31.571,98.011,23.168
-0.504,-0.833,-0.016,-28.872,95.222,22.960
-0.517,-0.825,-0.031,-26.140,90.937,22.587
-0.529,-0.818,-0.041,-24.313,85.248,22.285
-0.538,-0.811,-0.051,-23.113,79.085,21.943
-0.545,-0.805,-0.061,-22.464,72.519,21.589
-0.551,-0.799,-0.067,-22.128,65.572,21.293
-0.552,-0.797,-0.074,-22.011,59.339,21.150
-0.552,-0.798,-0.080,-21.765,54.171,21.149
-0.553,-0.801,-0.085,-21.234,49.894,21.174
-0.555,-0.804,-0.089,-20.460,46.371,21.252
-0.556,-0.807,-0.093,-19.435,43.247,21.400
-0.557,-0.808,-0.096,-18.277,40.425,21.601
-0.558,-0.809,-0.100,-17.125,37.726,21.768
-0.559,-0.809,-0.103,-16.010,35.019,21.881
-0.560,-0.808,-0.105,-15.032,32.390,21.930
-0.560,-0.806,-0.107,-14.247,29.923,21.905
-0.560,-0.804,-0.110,-13.690,27.673,21.818
-0.560,-0.801,-0.113,-13.213,25.689,21.675
-0.559,-0.798,-0.117,-12.810,23.893,21.470
-0.559,-0.794,-0.120,-12.508,22.273,21.187
-0.559,-0.789,-0.124,-12.306,20.780,20.833
-0.558,-0.785,-0.128,-12.198,19.414,20.438
-0.558,-0.781,-0.132,-12.188,18.135,19.987
-0.557,-0.777,-0.136,-12.288,16.933,19.513
-0.557,-0.774,-0.139,-12.453,15.820,18.977
-0.556,-0.771,-0.143,-12.698,14.848,18.382
-0.555,-0.770,-0.147,-12.994,14.035,17.756
-0.554,-0.770,-0.151,-13.246,13.297,17.160
-0.554,-0.770,-0.154,-13.428,12.549,16.586
-0.555,-0.770,-0.157,-13.512,11.834,16.019
-0.555,-0.769,-0.159,-13.494,11.191,15.446
-0.556,-0.768,-0.162,-13.436,10.665,14.846
-0.556,-0.767,-0.164,-13.375,10.233,14.191
-0.557,-0.767,-0.166,-13.316,9.835,13.464
-0.558,-0.768,-0.167,-13.230,9.455,12.720
-0.559,-0.769,-0.168,-13.094,9.057,11.998
-0.561,-0.769,-0.169,-12.892,8.635,11.289
-0.563,-0.769,-0.169,-12.651,8.172,10.573
-0.565,-0.769,-0.169,-12.416,7.718,9.871
-0.563,-0.769,-0.170,-12.206,7.271,9.215
-0.565,-0.771,-0.170,-11.975,6.828,8.602
-0.568,-0.772,-0.170,-11.685,6.382,8.011
-0.570,-0.775,-0.170,-11.354,5.977,7.468
-0.573,-0.776,-0.169,-10.975,5.677,6.993
-0.576,-0.778,-0.169,-10.562,5.416,6.560
-0.579,-0.778,-0.168,-10.151,5.163,6.174
-0.583,-0.778,-0.167,-9.762,4.883,5.787
-0.587,-0.777,-0.165,-9.421,4.501,5.380
-0.591,-0.775,-0.163,-9.145,4.094,4.939
-0.595,-0.774,-0.161,-8.958,3.692,4.479
-0.598,-0.774,-0.159,-8.779,3.326,3.998

-0.741,-1.028,0.148,-7.840,3.159,8.160
-0.760,-1.007,0.150,-6.986,3.389,11.593
-0.784,-0.976,0.154,-6.653,3.232,13.657
-0.812,-0.939,0.160,-6.977,2.304,14.246
-0.840,-0.899,0.172,-9.040,0.315,13.387
-0.861,-0.863,0.196,-13.533,-2.388,11.813
-0.866,-0.831,0.219,-19.203,-2.909,10.571
-0.857,-0.809,0.232,-22.908,-0.601,8.847
-0.849,-0.801,0.234,-22.206,8.428,5.927
-0.855,-0.795,0.235,-18.784,26.138,2.077
-0.867,-0.789,0.239,-14.475,46.933,-1.780
-0.881,-0.783,0.240,-11.156,68.103,-4.699
-0.892,-0.783,0.234,-9.453,84.907,-6.544
-0.903,-0.788,0.224,-8.287,91.544,-7.812
-0.915,-0.797,0.212,-7.011,92.420,-9.241
-0.921,-0.810,0.199,-5.386,90.923,-11.210
-0.922,-0.821,0.185,-3.924,88.992,-12.947
-0.920,-0.832,0.169,-2.703,87.115,-14.071
-0.916,-0.841,0.153,-1.312,85.462,-14.446
-0.914,-0.849,0.137,1.082,84.169,-14.371
-0.911,-0.852,0.121,4.107,83.155,-13.787
-0.911,-0.851,0.109,7.589,82.079,-12.623
-0.911,-0.848,0.092,10.740,80.446,-11.071
-0.913,-0.838,0.079,12.631,78.409,-9.229
-0.915,-0.828,0.067,12.923,73.385,-7.016
-0.918,-0.818,0.053,12.785,65.360,-5.707
-0.918,-0.807,0.043,11.102,54.670,-5.208
-0.914,-0.799,0.033,7.943,43.959,-5.040
-0.905,-0.793,0.023,4.142,35.201,-5.109
-0.894,-0.794,0.017,0.528,28.885,-5.120
-0.882,-0.798,0.010,-1.454,24.481,-4.907
-0.871,-0.805,0.005,-2.253,21.355,-4.438
-0.860,-0.811,-0.001,-2.303,19.323,-3.625
-0.851,-0.815,-0.005,-1.977,17.697,-2.495
-0.842,-0.817,-0.009,-1.327,16.221,-1.174
-0.834,-0.816,-0.013,-0.666,14.775,0.119
-0.827,-0.813,-0.016,-0.105,13.294,1.294
-0.819,-0.809,-0.019,0.331,11.831,2.284
-0.812,-0.805,-0.023,0.617,10.488,3.022
-0.805,-0.799,-0.026,0.789,9.392,3.552
-0.797,-0.794,-0.029,0.918,8.761,3.906
-0.789,-0.788,-0.033,1.026,8.463,4.111
-0.781,-0.783,-0.037,1.115,8.411,4.182
-0.773,-0.779,-0.041,1.148,8.524,4.168
-0.766,-0.775,-0.046,1.117,8.779,4.098
-0.759,-0.772,-0.051,1.004,9.070,3.987
-0.752,-0.771,-0.055,0.771,9.317,3.867
-0.747,-0.769,-0.060,0.448,9.454,3.747
-0.742,-0.768,-0.064,-0.022,9.426,3.606
-0.738,-0.766,-0.068,-0.662,9.228,3.433
-0.734,-0.765,-0.072,-1.523,8.883,3.191
-0.730,-0.764,-0.076,-2.485,8.419,2.906
-0.727,-0.763,-0.081,-3.473,7.873,2.592
-0.724,-0.763,-0.085,-4.447,7.281,2.273
-0.721,-0.762,-0.089,-5.327,6.714,1.932
-0.719,-0.762,-0.093,-6.096,6.223,1.527
-0.716,-0.762,-0.098,-6.765,5.841,1.107
-0.712,-0.762,-0.101,-7.337,5.573,0.696
-0.709,-0.763,-0.105,-7.797,5.349,0.282
-0.706,-0.764,-0.109,-8.076,5.141,-0.109
-0.704,-0.765,-0.112,-8.236,4.904,-0.475
-0.702,-0.766,-0.114,-8.318,4.655,-0.825
-0.699,-0.766,-0.117,-8.376,4.390,-1.153
-0.697,-0.768,-0.118,-8.441,4.106,-1.449
-0.695,-0.769,-0.120,-8.513,3.816,-1.709
-0.693,-0.770,-0.121,-8.548,3.557,-1.951
-0.691,-0.772,-0.121,-8.494,3.358,-2.174
-0.689,-0.773,-0.123,-8.356,3.232,-2.403
-0.691,-0.774,-0.124,-8.177,3.193,-2.631
-0.689,-0.775,-0.125,-7.989,3.210,-2.848
-0.687,-0.775,-0.127,-7.813,3.270,-3.056
-0.685,-0.775,-0.129,-7.654,3.347,-3.270
-0.684,-0.775,-0.131,-7.522,3.421,-3.497
-0.682,-0.775,-0.133,-7.443,3.479,-3.733
-0.681,-0.775,-0.135,-7.391,3.505,-3.984
-0.680,-0.775,-0.137,-7.374,3.448,-4.250
-0.679,-0.774,-0.139,-7.402,3.334,-4.506
-0.678,-0.774,-0.140,-7.501,3.189,-4.724
-0.677,-0.774,-0.141,-7.635,3.002,-4.904
-0.677,-0.775,-0.142,-7.756,2.786,-5.068
-0.676,-0.775,-0.144,-7.842,2.554,-5.197
-0.675,-0.775,-0.145,-7.867,2.299,-5.278
-0.675,-0.776,-0.147,-7.838,2.012,-5.314
-0.674,-0.776,-0.148,-7.761,1.687,-5.295
-0.674,-0.776,-0.149,-7.631,1.289,-5.243
-0.673,-0.777,-0.150,-7.469,0.842,-5.153
-0.672,-0.777,-0.151,-7.250,0.381,-5.020
-0.672,-0.778,-0.152,-6.940,-0.123,-4.852
-0.671,-0.778,-0.152,-6.549,-0.639,-4.673
-0.671,-0.778,-0.152,-6.090,-1.187,-4.487
-0.671,-0.778,-0.151,-5.607,-1.754,-4.310
-0.671,-0.778,-0.149,-5.101,-2.304,-4.143
-0.672,-0.777,-0.146,-4.559,-2.808,-3.986
-0.673,-0.776,-0.142,-3.952,-3.240,-3.863
-0.675,-0.775,-0.138,-3.217,-3.590,-3.753
-0.676,-0.774,-0.133,-2.354,-3.826,-3.652
-0.679,-0.773,-0.127,-1.334,-3.899,-3.556
-0.682,-0.771,-0.122,-0.194,-3.831,-3.493
-0.686,-0.769,-0.117,0.978,-3.632,-3.389
-0.690,-0.768,-0.113,2.202,-3.460,-3.112
-0.695,-0.768,-0.109,3.631,-3.225,-2.994
-0.700,-0.766,-0.105,4.981,-2.890,-3.235
-0.704,-0.764,-0.102,6.165,-2.499,-3.624
-0.709,-0.765,-0.099,7.249,-1.989,-4.081
-0.714,-0.767,-0.097,8.437,-1.570,-4.502
-0.721,-0.770,-0.094,10.086,-1.334,-4.733
-0.728,-0.775,-0.091,12.153,-1.206,-4.885
-0.736,-0.778,-0.085,14.487,-1.115,-4.986
-0.745,-0.782,-0.079,16.992,-1.033,-5.009
-0.753,-0.785,-0.072,19.716,-0.933,-4.963
-0.762,-0.788,-0.065,22.679,-0.820,-4.918
-0.772,-0.790,-0.058,25.784,-0.699,-4.925
-0.780,-0.790,-0.052,28.852,-0.514,-4.987
-0.788,-0.790,-0.047,31.845,-0.220,-5.085
-0.796,-0.791,-0.043,34.872,0.184,-5.220
-0.802,-0.792,-0.039,38.076,0.704,-5.401
-0.809,-0.794,-0.036,41.248,1.326,-5.602
-0.816,-0.795,-0.033,44.303,2.091,-5.809
-0.823,-0.796,-0.030,47.199,2.897,-6.052

-0.886,-0.936,0.103,41.708,0.065,-4.554
-0.898,-0.944,0.104,37.930,-1.761,-3.009
-0.907,-0.944,0.111,34.752,-3.509,-1.496
-0.920,-0.939,0.119,31.506,-5.870,-0.057
-0.930,-0.929,0.126,28.480,-8.004,1.519
-0.940,-0.911,0.137,25.630,-9.854,3.002
-0.949,-0.888,0.151,22.626,-11.324,4.234
-0.950,-0.860,0.168,18.851,-11.449,5.206
-0.955,-0.830,0.184,13.892,-10.536,5.819
-0.960,-0.801,0.199,7.811,-7.912,5.712
-0.968,-0.777,0.211,0.696,-3.283,4.968
-0.975,-0.758,0.220,-6.762,2.907,3.503
-0.981,-0.747,0.224,-14.425,10.653,1.555
-0.988,-0.743,0.226,-20.879,18.652,-0.667
-0.997,-0.748,0.225,-25.117,25.824,-2.892
-1.007,-0.757,0.222,-26.981,30.980,-4.900
-1.015,-0.769,0.218,-27.186,34.686,-6.541
-1.021,-0.781,0.213,-26.599,37.556,-7.459
-1.023,-0.791,0.206,-25.491,40.108,-7.896
-1.023,-0.800,0.198,-24.127,42.596,-8.052
-1.022,-0.807,0.187,-22.440,44.858,-8.125
-1.020,-0.813,0.175,-20.321,46.627,-8.301
-1.018,-0.816,0.162,-17.741,47.934,-8.551
-1.015,-0.817,0.148,-15.104,48.810,-8.819
-1.011,-0.816,0.133,-12.718,49.433,-9.076
-1.006,-0.812,0.119,-10.830,49.712,-9.302
-1.002,-0.806,0.106,-9.401,49.413,-9.370
-0.999,-0.802,0.091,-8.314,48.752,-9.541
-0.993,-0.796,0.082,-7.810,47.882,-9.659
-0.987,-0.790,0.068,-7.380,46.572,-9.761
-0.981,-0.785,0.058,-7.234,44.801,-9.651
-0.974,-0.782,0.048,-7.301,42.646,-9.517
-0.965,-0.779,0.037,-7.437,40.014,-9.425
-0.956,-0.778,0.027,-7.666,37.017,-9.304
-0.947,-0.777,0.018,-7.948,34.027,-9.112
-0.937,-0.778,0.010,-8.112,31.432,-8.876
-0.927,-0.779,0.002,-8.138,29.413,-8.603
-0.916,-0.780,-0.006,-7.931,27.951,-8.212
-0.905,-0.780,-0.013,-7.580,26.850,-7.802
-0.896,-0.780,-0.020,-7.079,26.111,-7.390
-0.888,-0.778,-0.027,-6.514,25.540,-7.005
-0.880,-0.775,-0.034,-5.977,25.098,-6.688
-0.872,-0.772,-0.042,-5.555,24.778,-6.434
-0.864,-0.770,-0.050,-5.222,24.499,-6.207
-0.856,-0.769,-0.058,-4.905,24.206,-5.998
-0.849,-0.769,-0.066,-4.589,23.883,-5.782
-0.843,-0.768,-0.073,-4.281,23.491,-5.541
-0.836,-0.766,-0.080,-4.038,23.029,-5.307
-0.830,-0.764,-0.086,-3.904,22.485,-5.116
-0.824,-0.761,-0.093,-3.886,21.755,-4.972
-0.818,-0.760,-0.100,-3.993,20.917,-4.879
-0.812,-0.760,-0.107,-4.149,19.955,-4.778
-0.806,-0.760,-0.112,-4.321,18.865,-4.665
-0.800,-0.760,-0.117,-4.452,17.742,-4.540
-0.794,-0.759,-0.122,-4.605,16.607,-4.445
-0.789,-0.758,-0.128,-4.820,15.475,-4.383
-0.782,-0.758,-0.133,-5.079,14.300,-4.343
-0.777,-0.759,-0.137,-5.380,13.097,-4.286
-0.772,-0.761,-0.141,-5.631,11.901,-4.194
-0.767,-0.763,-0.144,-5.791,10.777,-4.097
-0.762,-0.764,-0.147,-5.880,9.771,-3.999
-0.757,-0.765,-0.149,-5.926,8.916,-3.921
-0.752,-0.765,-0.151,-5.985,8.195,-3.872
-0.748,-0.765,-0.153,-6.035,7.564,-3.856
-0.744,-0.765,-0.154,-6.078,7.007,-3.875
-0.740,-0.765,-0.156,-6.083,6.527,-3.903
-0.736,-0.766,-0.157,-6.031,6.111,-3.937
-0.732,-0.767,-0.158,-5.925,5.777,-3.973
-0.729,-0.769,-0.159,-5.744,5.542,-3.992
-0.725,-0.771,-0.161,-5.488,5.413,-3.989
-0.722,-0.774,-0.162,-5.168,5.345,-3.948
-0.719,-0.776,-0.164,-4.746,5.333,-3.861
-0.716,-0.779,-0.165,-4.266,5.363,-3.742
-0.714,-0.782,-0.167,-3.730,5.405,-3.583
-0.712,-0.784,-0.168,-3.177,5.441,-3.381
-0.711,-0.786,-0.169,-2.624,5.435,-3.171
-0.711,-0.787,-0.170,-2.076,5.387,-2.972
-0.710,-0.788,-0.171,-1.550,5.289,-2.783
-0.710,-0.788,-0.171,-1.061,5.139,-2.598
-0.710,-0.787,-0.171,-0.591,4.910,-2.424
-0.711,-0.787,-0.170,-0.111,4.602,-2.281
-0.712,-0.786,-0.169,0.374,4.241,-2.145
-0.713,-0.786,-0.167,0.893,3.880,-2.014
-0.714,-0.785,-0.165,1.442,3.564,-1.911
-0.714,-0.785,-0.164,2.082,3.320,-1.790
-0.715,-0.786,-0.162,2.997,3.141,-1.620
-0.715,-0.788,-0.161,4.147,3.048,-1.392
-0.716,-0.789,-0.159,5.532,3.017,-1.097
-0.717,-0.790,-0.158,7.165,3.026,-0.718
-0.719,-0.790,-0.156,8.901,3.046,-0.314
-0.722,-0.789,-0.155,10.676,3.027,0.086
-0.725,-0.787,-0.153,12.419,2.959,0.445
-0.728,-0.784,-0.151,14.070,2.831,0.731
-0.732,-0.781,-0.148,15.517,2.651,0.905
-0.735,-0.778,-0.145,16.787,2.443,0.985
-0.738,-0.774,-0.142,17.877,2.257,0.967
-0.741,-0.770,-0.139,18.837,2.125,0.848
-0.743,-0.767,-0.135,19.681,2.063,0.611
-0.745,-0.764,-0.132,20.466,2.111,0.300
-0.746,-0.762,-0.129,21.205,2.288,-0.076
-0.746,-0.761,-0.127,21.955,2.621,-0.502
-0.747,-0.761,-0.125,22.729,3.070,-0.971
-0.747,-0.761,-0.123,23.535,3.593,-1.475
-0.747,-0.762,-0.122,24.329,4.149,-1.946
-0.748,-0.763,-0.120,25.112,4.711,-2.364
-0.749,-0.764,-0.118,25.831,5.205,-2.719
-0.749,-0.765,-0.117,26.515,5.691,-3.242
-0.750,-0.764,-0.115,27.045,6.366,-3.915
-0.750,-0.763,-0.112,27.274,7.063,-4.550
-0.750,-0.763,-0.111,27.570,7.741,-5.377
-0.749,-0.764,-0.109,27.802,8.427,-6.188
-0.748,-0.766,-0.108,28.158,9.128,-7.091
-0.746,-0.768,-0.107,28.594,10.125,-8.135
-0.743,-0.770,-0.106,29.071,11.444,-9.159
-0.740,-0.773,-0.105,29.686,13.019,-10.121
-0.737,-0.776,-0.105,30.420,14.801,-11.029
-0.734,-0.778,-0.105,31.095,16.670,-11.825
-0.732,-0.779,-0.106,31.601,18.496,-12.569
-0.731,-0.779,-0.107,31.971,20.135,-13.393

-0.802,-0.806,0.342,27.518,1.412,-10.379
-0.816,-0.807,0.381,22.562,-10.948,-7.836
-0.833,-0.809,0.421,17.779,-16.238,-5.472
-0.853,-0.810,0.460,13.806,-17.616,-3.109
-0.874,-0.807,0.493,11.009,-16.883,-0.993
-0.896,-0.798,0.521,9.112,-13.568,0.488
-0.919,-0.783,0.541,7.643,-6.394,1.272
-0.942,-0.763,0.558,5.867,2.641,1.477
-0.965,-0.742,0.569,2.719,13.021,1.037
-0.983,-0.725,0.575,-1.468,24.043,0.087
-0.999,-0.715,0.577,-6.138,35.033,-1.358
-1.012,-0.712,0.573,-10.514,44.819,-3.149
-1.020,-0.714,0.566,-13.995,52.610,-5.146
-1.025,-0.723,0.556,-16.068,58.009,-7.079
-1.026,-0.734,0.542,-17.352,60.716,-8.828
-1.023,-0.745,0.525,-18.000,62.322,-10.238
-1.018,-0.760,0.506,-17.819,63.423,-11.077
-1.012,-0.774,0.485,-17.083,64.321,-11.535
-1.006,-0.786,0.462,-15.493,65.011,-11.761
-1.000,-0.793,0.438,-13.212,65.467,-11.913
-0.995,-0.795,0.414,-10.785,65.595,-12.169
-0.989,-0.793,0.390,-8.874,65.294,-12.653
-0.984,-0.789,0.366,-7.627,64.517,-13.473
-0.978,-0.784,0.341,-6.970,63.511,-14.625
-0.972,-0.780,0.318,-6.795,62.407,-16.067
-0.965,-0.777,0.296,-6.812,61.254,-17.573
-0.958,-0.775,0.275,-6.898,60.109,-18.954
-0.950,-0.774,0.255,-6.952,58.955,-19.791
-0.942,-0.775,0.232,-6.631,57.871,-20.297
-0.932,-0.777,0.216,-6.312,56.746,-20.269
-0.924,-0.778,0.200,-5.528,54.931,-19.867
-0.917,-0.781,0.184,-4.550,52.646,-18.960
-0.909,-0.781,0.171,-3.709,50.371,-18.004
-0.901,-0.778,0.156,-2.889,46.823,-17.267
-0.893,-0.774,0.145,-2.234,43.276,-16.686
-0.883,-0.771,0.135,-1.955,40.387,-16.014
-0.873,-0.768,0.124,-1.789,38.238,-15.432
-0.863,-0.764,0.114,-1.682,36.933,-15.002
-0.854,-0.760,0.104,-1.682,36.096,-14.683
-0.846,-0.755,0.094,-1.877,35.531,-14.472
-0.838,-0.751,0.084,-2.246,35.103,-14.332
-0.830,-0.748,0.073,-2.789,34.884,-14.236
-0.822,-0.746,0.061,-3.473,34.768,-14.147
-0.815,-0.744,0.050,-4.205,34.668,-14.053
-0.809,-0.743,0.038,-4.937,34.517,-13.946
-0.803,-0.741,0.027,-5.655,34.289,-13.826
-0.798,-0.740,0.016,-6.471,33.972,-13.713
-0.794,-0.738,0.005,-7.370,33.570,-13.625
-0.788,-0.737,-0.007,-8.314,33.088,-13.553
-0.783,-0.738,-0.018,-9.197,32.582,-13.466
-0.778,-0.740,-0.029,-9.855,32.024,-13.323
-0.773,-0.743,-0.039,-10.295,31.399,-13.124
-0.768,-0.745,-0.049,-10.475,30.772,-12.861
-0.763,-0.747,-0.059,-10.427,30.089,-12.588
-0.759,-0.750,-0.068,-10.314,29.324,-12.323
-0.754,-0.752,-0.076,-10.157,28.490,-12.052
-0.749,-0.755,-0.084,-9.948,27.610,-11.748
-0.745,-0.757,-0.092,-9.713,26.641,-11.401
-0.741,-0.758,-0.099,-9.440,25.629,-11.069
-0.737,-0.759,-0.106,-9.164,24.650,-10.769
-0.732,-0.760,-0.113,-8.930,23.739,-10.483
-0.728,-0.760,-0.120,-8.759,22.905,-10.227
-0.723,-0.760,-0.126,-8.673,22.119,-10.028
-0.719,-0.760,-0.132,-8.634,21.367,-9.853
-0.715,-0.761,-0.138,-8.592,20.620,-9.682
-0.711,-0.762,-0.144,-8.529,19.885,-9.489
-0.707,-0.763,-0.149,-8.421,19.172,-9.290
-0.703,-0.764,-0.155,-8.285,18.477,-9.095
-0.699,-0.765,-0.161,-8.135,17.823,-8.900
-0.695,-0.765,-0.166,-7.956,17.205,-8.680
-0.691,-0.765,-0.172,-7.753,16.611,-8.470
-0.687,-0.765,-0.177,-7.528,16.102,-8.280
-0.683,-0.765,-0.183,-7.251,15.679,-8.101
-0.679,-0.764,-0.189,-6.947,15.318,-7.917
-0.675,-0.763,-0.194,-6.642,14.996,-7.743
-0.671,-0.761,-0.199,-6.357,14.668,-7.592
-0.667,-0.760,-0.204,-6.106,14.333,-7.481
-0.663,-0.758,-0.209,-5.879,13.962,-7.380
-0.659,-0.757,-0.213,-5.671,13.591,-7.285
-0.656,-0.756,-0.217,-5.473,13.228,-7.185
-0.652,-0.755,-0.220,-5.278,12.878,-7.093
-0.649,-0.754,-0.224,-5.108,12.550,-7.010
-0.645,-0.753,-0.227,-4.944,12.251,-6.930
-0.642,-0.753,-0.230,-4.780,11.968,-6.831
-0.638,-0.753,-0.234,-4.595,11.550,-6.652
-0.636,-0.753,-0.236,-4.392,10.967,-6.334
-0.634,-0.754,-0.240,-3.982,10.557,-6.362
-0.631,-0.751,-0.241,-3.764,10.537,-6.361
-0.627,-0.751,-0.247,-3.579,10.371,-6.177
-0.626,-0.752,-0.249,-3.306,10.194,-6.117
-0.625,-0.752,-0.253,-3.070,9.919,-5.977
-0.624,-0.752,-0.259,-2.880,9.147,-5.559
-0.623,-0.753,-0.260,-2.648,8.675,-5.392
-0.620,-0.752,-0.262,-2.543,8.414,-5.434
-0.619,-0.752,-0.265,-2.416,8.103,-5.507
-0.617,-0.753,-0.267,-2.270,7.856,-5.515
-0.616,-0.755,-0.270,-2.106,7.671,-5.465
-0.615,-0.756,-0.272,-1.899,7.428,-5.399
-0.614,-0.758,-0.275,-1.608,7.151,-5.312
-0.613,-0.759,-0.277,-1.241,6.914,-5.173
-0.612,-0.761,-0.279,-0.731,6.770,-4.956
-0.611,-0.763,-0.281,-0.164,6.683,-4.708
-0.610,-0.764,-0.282,0.375,6.656,-4.473
-0.609,-0.764,-0.284,0.862,6.619,-4.281
-0.608,-0.764,-0.286,1.236,6.539,-4.143
-0.608,-0.765,-0.287,1.544,6.396,-4.033
-0.607,-0.765,-0.289,1.802,6.171,-3.934
-0.607,-0.766,-0.290,2.020,5.916,-3.257
-0.606,-0.767,-0.290,2.237,5.653,-3.158
-0.606,-0.769,-0.291,2.527,5.384,-3.042
-0.605,-0.771,-0.292,2.941,5.109,-2.894
-0.605,-0.774,-0.293,3.483,4.857,-2.685
-0.605,-0.775,-0.293,4.117,4.612,-2.442
-0.605,-0.776,-0.294,4.740,4.377,-2.185
-0.605,-0.777,-0.294,5.314,4.115,-1.919
-0.606,-0.777,-0.294,5.813,3.801,-1.682
-0.606,-0.778,-0.294,6.206,3.464,-1.494
-0.607,-0.778,-0.294,6.559,3.123,-1.332
-0.607,-0.779,-0.294,6.908,2.775,-1.164

-0.533,-0.781,-0.623,27.386,33.489,-7.710
-0.535,-0.774,-0.643,38.007,47.616,-15.213
-0.541,-0.772,-0.652,39.202,51.890,-25.394
-0.548,-0.778,-0.649,38.219,51.421,-38.495
-0.542,-0.787,-0.624,34.295,50.572,-53.408
-0.520,-0.806,-0.585,27.696,50.724,-68.136
-0.481,-0.837,-0.532,21.767,53.847,-80.148
-0.433,-0.864,-0.478,18.201,59.930,-88.235
-0.366,-0.892,-0.430,17.317,72.455,-92.708
-0.291,-0.909,-0.388,18.773,89.525,-93.027
-0.223,-0.915,-0.362,21.231,109.790,-91.971
-0.162,-0.919,-0.360,24.026,128.239,-90.395
-0.115,-0.925,-0.368,25.896,139.501,-88.615
-0.077,-0.928,-0.380,25.726,143.029,-86.610
-0.045,-0.930,-0.392,24.005,141.312,-84.492
-0.021,-0.930,-0.400,19.997,137.733,-81.823
-0.000,-0.931,-0.404,14.364,128.881,-76.412
0.021,-0.932,-0.404,8.818,115.935,-70.171
0.042,-0.933,-0.402,4.617,100.831,-62.161
0.063,-0.933,-0.397,1.930,84.529,-52.576
0.085,-0.932,-0.391,0.396,68.652,-39.519
0.105,-0.929,-0.386,-0.375,53.575,-27.180
0.123,-0.925,-0.381,-1.012,38.760,-14.432
0.139,-0.919,-0.377,-1.681,24.001,-1.862
0.152,-0.913,-0.374,-2.791,9.390,10.033
0.165,-0.907,-0.372,-4.478,-4.708,20.845
0.177,-0.901,-0.370,-7.004,-18.559,30.597
0.190,-0.895,-0.367,-10.429,-31.985,39.511
0.203,-0.890,-0.365,-14.685,-45.201,47.896
0.215,-0.884,-0.360,-19.278,-58.342,55.975
0.226,-0.878,-0.356,-24.403,-70.616,63.683
0.238,-0.874,-0.351,-29.926,-81.966,71.026
0.248,-0.871,-0.345,-35.294,-92.755,77.508
0.255,-0.871,-0.338,-39.697,-103.162,83.121
0.261,-0.873,-0.330,-42.987,-112.629,88.070
0.263,-0.876,-0.322,-45.813,-120.031,92.709
0.264,-0.877,-0.315,-48.205,-125.328,97.052
0.260,-0.877,-0.307,-50.406,-129.292,100.693
0.252,-0.876,-0.298,-52.352,-132.903,103.511
0.239,-0.874,-0.288,-53.924,-136.301,105.339
0.224,-0.872,-0.276,-55.363,-139.392,106.628
0.207,-0.869,-0.261,-56.782,-142.140,107.539
0.188,-0.865,-0.243,-58.321,-144.415,108.180
0.167,-0.863,-0.224,-59.693,-145.978,108.732
0.145,-0.864,-0.205,-60.629,-146.765,109.273
0.122,-0.867,-0.185,-61.168,-146.553,109.933
0.097,-0.870,-0.163,-61.321,-145.828,110.793
0.068,-0.873,-0.144,-60.886,-144.552,111.782
0.036,-0.876,-0.127,-60.266,-142.545,112.821
0.004,-0.873,-0.111,-59.548,-139.761,113.942
-0.030,-0.865,-0.093,-59.096,-136.866,114.991
-0.069,-0.850,-0.074,-59.568,-134.314,115.535
-0.109,-0.830,-0.050,-60.971,-132.672,115.405
-0.149,-0.808,-0.024,-63.594,-131.406,114.527
-0.187,-0.786,0.004,-67.528,-129.851,112.720
-0.222,-0.765,0.033,-71.703,-127.478,110.494
-0.255,-0.744,0.061,-75.361,-124.041,108.015
-0.285,-0.726,0.089,-78.161,-120.518,105.399
-0.314,-0.707,0.116,-80.068,-115.686,102.747
-0.343,-0.690,0.139,-81.371,-108.228,99.580
-0.370,-0.676,0.158,-82.102,-97.789,95.374
-0.394,-0.666,0.174,-82.197,-86.227,90.259
-0.418,-0.664,0.186,-81.309,-74.316,84.608
-0.440,-0.665,0.195,-79.763,-62.443,79.196
-0.460,-0.669,0.201,-77.807,-51.219,74.194
-0.479,-0.676,0.205,-75.161,-40.747,69.644
-0.496,-0.684,0.207,-71.308,-31.015,65.329
-0.510,-0.692,0.205,-66.360,-22.037,61.119
-0.522,-0.699,0.201,-60.813,-13.680,56.951
-0.533,-0.703,0.194,-55.122,-5.627,52.960
-0.542,-0.706,0.186,-49.718,2.235,49.229
-0.552,-0.707,0.177,-44.631,9.766,45.744
-0.561,-0.708,0.167,-39.880,16.730,42.530
-0.570,-0.706,0.156,-35.727,22.846,39.668
-0.579,-0.703,0.145,-32.293,27.803,37.126
-0.589,-0.699,0.133,-29.635,30.739,34.958
-0.597,-0.696,0.119,-27.796,31.797,33.726
-0.608,-0.696,0.104,-26.437,31.496,32.425
-0.615,-0.695,0.093,-25.840,29.623,31.323
-0.622,-0.693,0.081,-25.368,26.722,30.241
-0.626,-0.694,0.071,-25.219,23.417,29.369
-0.629,-0.695,0.061,-25.159,20.189,28.464
