aX,aY,aZ,gX,gY,gZ
0.613,-0.056,1.269,2.478,-6.469,5.823
0.625,-0.055,1.278,3.850,-16.357,0.253
0.637,-0.053,1.285,4.824,-24.124,-5.045
0.649,-0.051,1.290,5.385,-30.529,-10.097
0.660,-0.048,1.293,5.634,-35.872,-14.904
0.670,-0.046,1.296,5.462,-40.475,-19.265
0.679,-0.044,1.297,4.945,-44.120,-23.087
0.688,-0.042,1.298,4.105,-46.773,-26.262
0.695,-0.041,1.297,3.063,-48.577,-28.840
0.703,-0.039,1.295,1.815,-49.716,-30.871
0.710,-0.038,1.292,0.567,-50.339,-32.398
0.716,-0.037,1.288,-0.630,-50.275,-33.519
0.720,-0.035,1.283,-1.665,-49.983,-34.195
0.725,-0.034,1.278,-2.617,-49.364,-34.252
0.728,-0.033,1.272,-3.424,-48.506,-34.097
0.731,-0.032,1.265,-4.154,-47.440,-33.672
0.734,-0.031,1.256,-4.753,-46.202,-33.056
0.736,-0.031,1.245,-5.171,-44.864,-32.308
0.739,-0.029,1.234,-5.470,-43.460,-31.355
0.740,-0.027,1.223,-5.659,-42.021,-30.331
0.741,-0.026,1.212,-5.697,-40.550,-29.267
0.741,-0.023,1.200,-5.617,-39.057,-28.114
0.741,-0.020,1.188,-5.442,-37.541,-26.815
0.741,-0.016,1.176,-5.227,-36.034,-25.450
0.739,-0.012,1.164,-4.991,-34.560,-24.088
0.737,-0.008,1.153,-4.744,-33.142,-22.786
0.735,-0.004,1.141,-4.496,-31.791,-21.570
0.732,0.000,1.130,-4.259,-30.518,-20.446
0.729,0.004,1.119,-4.025,-29.321,-19.434
0.726,0.008,1.108,-3.784,-28.190,-18.537
0.723,0.011,1.097,-3.554,-27.155,-17.766
0.720,0.015,1.086,-3.344,-26.193,-17.081
0.717,0.018,1.074,-3.128,-25.257,-16.479
0.716,0.021,1.062,-2.926,-24.316,-15.938
0.714,0.024,1.052,-2.777,-23.394,-15.441
0.712,0.027,1.042,-2.724,-22.503,-14.989
0.711,0.029,1.033,-2.755,-21.656,-14.576
0.710,0.031,1.025,-2.868,-20.822,-14.204
0.709,0.033,1.016,-3.043,-19.994,-13.846
0.709,0.035,1.009,-3.267,-19.173,-13.491
0.708,0.035,1.001,-3.489,-18.368,-13.121
0.708,0.036,0.993,-3.656,-17.586,-12.740
0.708,0.036,0.986,-3.755,-16.810,-12.352
0.707,0.036,0.978,-3.770,-16.054,-11.944
0.707,0.036,0.970,-3.707,-15.333,-11.518
0.706,0.036,0.963,-3.567,-14.651,-11.081
0.705,0.036,0.956,-3.404,-14.005,-10.648
0.704,0.037,0.949,-3.235,-13.379,-10.232
0.704,0.037,0.941,-3.062,-12.753,-9.836
0.703,0.038,0.935,-2.880,-12.134,-9.455
0.702,0.038,0.929,-2.709,-11.537,-9.098
0.701,0.039,0.923,-2.568,-10.974,-8.772
0.699,0.040,0.918,-2.471,-10.474,-8.487
0.698,0.041,0.913,-2.415,-10.024,-8.241
0.697,0.041,0.909,-2.398,-9.619,-8.016
0.695,0.042,0.904,-2.414,-9.251,-7.817
0.694,0.042,0.900,-2.446,-8.934,-7.629
0.693,0.042,0.895,-2.481,-8.651,-7.454
0.692,0.042,0.891,-2.488,-8.368,-7.292
0.690,0.042,0.886,-2.455,-8.064,-7.123
0.689,0.042,0.882,-2.407,-7.742,-6.949
0.688,0.042,0.878,-2.361,-7.409,-6.775
0.687,0.042,0.875,-2.322,-7.079,-6.613
0.685,0.042,0.872,-2.299,-6.747,-6.462
0.684,0.042,0.869,-2.288,-6.426,-6.314
0.683,0.042,0.867,-2.292,-6.125,-6.160
0.681,0.042,0.864,-2.305,-5.856,-6.018
0.680,0.042,0.862,-2.332,-5.633,-5.882
0.679,0.041,0.860,-2.364,-5.435,-5.749
0.678,0.041,0.857,-2.370,-5.233,-5.605
0.678,0.041,0.854,-2.337,-5.027,-5.451
0.677,0.040,0.852,-2.292,-4.825,-5.296
0.676,0.040,0.850,-2.234,-4.603,-5.145
0.675,0.040,0.848,-2.160,-4.360,-4.990
0.675,0.040,0.846,-2.088,-4.105,-4.835
0.674,0.040,0.844,-2.037,-3.848,-4.675
0.673,0.039,0.843,-2.009,-3.596,-4.519
0.672,0.039,0.842,-2.000,-3.362,-4.369
0.671,0.039,0.841,-2.000,-3.153,-4.217
0.670,0.039,0.840,-2.011,-2.975,-4.061
0.669,0.038,0.839,-2.030,-2.837,-3.907
0.668,0.038,0.838,-2.046,-2.720,-3.751
0.668,0.038,0.836,-2.028,-2.589,-3.594
0.667,0.037,0.835,-1.985,-2.441,-3.430
0.666,0.037,0.833,-1.950,-2.283,-3.267
0.665,0.037,0.832,-1.931,-2.101,-3.106
0.665,0.038,0.831,-1.927,-1.883,-2.954
0.664,0.037,0.830,-1.940,-1.632,-2.804
0.664,0.037,0.829,-1.976,-1.371,-2.653
0.663,0.037,0.828,-2.045,-1.113,-2.506
0.662,0.037,0.828,-2.142,-0.872,-2.364
0.662,0.037,0.827,-2.260,-0.658,-2.225
0.661,0.037,0.827,-2.394,-0.471,-2.084
0.660,0.037,0.826,-2.539,-0.309,-1.942
0.659,0.037,0.825,-2.660,-0.162,-1.798
0.658,0.036,0.825,-2.765,-0.031,-1.641
0.657,0.036,0.823,-2.828,0.096,-1.479
0.657,0.036,0.822,-2.845,0.234,-1.310
0.656,0.035,0.821,-2.806,0.398,-1.138
0.656,0.035,0.820,-2.745,0.585,-0.961
0.656,0.035,0.819,-2.686,0.782,-0.783
0.655,0.035,0.819,-2.659,0.973,-0.612
0.654,0.035,0.818,-2.675,1.155,-0.444
0.654,0.035,0.818,-2.743,1.313,-0.288
0.653,0.035,0.818,-2.866,1.448,-0.140
0.652,0.035,0.818,-3.020,1.564,0.007
0.651,0.034,0.818,-3.191,1.660,0.144
0.650,0.034,0.818,-3.347,1.744,0.281
0.650,0.033,0.817,-3.453,1.832,0.421
0.649,0.033,0.817,-3.489,1.933,0.573
0.648,0.032,0.817,-3.475,2.050,0.727
0.647,0.031,0.816,-3.430,2.185,0.891
0.646,0.031,0.816,-3.340,2.334,1.057
0.646,0.030,0.816,-3.236,2.486,1.232
0.645,0.030,0.816,-3.159,2.633,1.410
0.644,0.030,0.816,-3.138,2.760,1.587
0.643,0.030,0.817,-3.192,2.868,1.755
0.642,0.029,0.818,-3.294,2.955,1.923
0.642,0.029,0.818,-3.409,3.030,2.087

0.513,-0.086,1.344,-3.212,-4.864,-3.284
0.527,-0.090,1.349,-3.052,-10.819,-7.995
0.540,-0.094,1.353,-2.944,-15.445,-11.828
0.553,-0.098,1.355,-2.912,-19.054,-14.994
0.565,-0.100,1.356,-2.977,-21.899,-17.551
0.575,-0.102,1.356,-3.172,-24.014,-19.581
0.584,-0.102,1.354,-3.640,-25.688,-21.097
0.591,-0.101,1.353,-4.370,-27.017,-22.277
0.597,-0.100,1.350,-5.442,-28.019,-23.333
0.601,-0.098,1.347,-6.784,-29.054,-24.189
0.605,-0.098,1.343,-8.106,-29.693,-24.910
0.609,-0.098,1.335,-9.106,-29.910,-25.429
0.611,-0.099,1.327,-9.853,-29.800,-25.807
0.613,-0.100,1.318,-10.348,-29.671,-25.930
0.614,-0.100,1.308,-10.620,-29.455,-25.843
0.614,-0.101,1.297,-10.752,-29.078,-25.703
0.613,-0.100,1.285,-10.817,-28.745,-25.531
0.613,-0.100,1.272,-10.738,-28.356,-25.226
0.613,-0.099,1.260,-10.612,-27.756,-24.833
0.612,-0.098,1.248,-10.459,-27.230,-24.444
0.610,-0.096,1.236,-10.273,-26.800,-24.101
0.609,-0.094,1.224,-10.065,-26.404,-23.780
0.608,-0.092,1.212,-9.838,-26.005,-23.472
0.607,-0.090,1.201,-9.597,-25.566,-23.186
0.606,-0.088,1.190,-9.347,-25.100,-22.903
0.606,-0.087,1.180,-9.091,-24.634,-22.612
0.607,-0.086,1.169,-8.819,-24.158,-22.297
0.608,-0.085,1.160,-8.532,-23.671,-21.959
0.610,-0.084,1.150,-8.244,-23.149,-21.597
0.612,-0.083,1.141,-7.971,-22.606,-21.207
0.614,-0.081,1.132,-7.732,-22.056,-20.788
0.616,-0.079,1.123,-7.517,-21.505,-20.353
0.618,-0.077,1.114,-7.331,-20.962,-19.915
0.620,-0.075,1.105,-7.170,-20.424,-19.470
0.621,-0.074,1.097,-7.034,-19.890,-19.019
0.623,-0.072,1.089,-6.911,-19.351,-18.571
0.624,-0.071,1.080,-6.786,-18.792,-18.128
0.625,-0.071,1.072,-6.644,-18.231,-17.682
0.626,-0.070,1.065,-6.491,-17.677,-17.216
0.627,-0.069,1.057,-6.344,-17.126,-16.744
0.628,-0.067,1.050,-6.217,-16.584,-16.275
0.628,-0.066,1.043,-6.133,-16.040,-15.813
0.628,-0.064,1.035,-6.075,-15.494,-15.357
0.628,-0.063,1.028,-6.030,-14.959,-14.916
0.628,-0.062,1.021,-5.991,-14.442,-14.486
0.628,-0.060,1.015,-5.938,-13.946,-14.061
0.627,-0.059,1.009,-5.862,-13.469,-13.655
0.627,-0.059,1.003,-5.767,-13.008,-13.268
0.626,-0.058,0.998,-5.655,-12.570,-12.894
0.626,-0.057,0.993,-5.540,-12.164,-12.526
0.625,-0.057,0.988,-5.439,-11.781,-12.180
0.624,-0.056,0.984,-5.362,-11.399,-11.846
0.623,-0.056,0.979,-5.298,-11.024,-11.535
0.623,-0.055,0.975,-5.259,-10.658,-11.236
0.622,-0.054,0.971,-5.234,-10.308,-10.948
0.621,-0.053,0.966,-5.222,-9.972,-10.678
0.621,-0.052,0.962,-5.231,-9.648,-10.426
0.620,-0.051,0.958,-5.257,-9.328,-10.192
0.620,-0.051,0.954,-5.279,-9.016,-9.969
0.619,-0.051,0.950,-5.297,-8.713,-9.752
0.618,-0.051,0.947,-5.289,-8.433,-9.533
0.618,-0.051,0.944,-5.268,-8.169,-9.315
0.617,-0.051,0.941,-5.249,-7.912,-9.107
0.617,-0.051,0.938,-5.237,-7.657,-8.900
0.616,-0.051,0.935,-5.229,-7.406,-8.685
0.616,-0.051,0.932,-5.203,-7.150,-8.463
0.616,-0.052,0.929,-5.166,-6.901,-8.233
0.616,-0.052,0.925,-5.119,-6.641,-8.000
0.616,-0.052,0.922,-5.062,-6.383,-7.754
0.615,-0.052,0.919,-5.012,-6.125,-7.508
0.615,-0.052,0.915,-4.963,-5.863,-7.267
0.615,-0.051,0.913,-4.925,-5.607,-7.030
0.615,-0.051,0.910,-4.922,-5.354,-6.802
0.615,-0.051,0.907,-4.932,-5.098,-6.584
0.614,-0.051,0.905,-4.966,-4.842,-6.379
0.614,-0.051,0.903,-5.007,-4.590,-6.185
0.614,-0.051,0.900,-5.058,-4.349,-5.989
0.613,-0.051,0.898,-5.103,-4.115,-5.799
0.613,-0.052,0.896,-5.140,-3.885,-5.612
0.613,-0.052,0.894,-5.168,-3.648,-5.421
0.613,-0.052,0.892,-5.183,-3.408,-5.227
0.613,-0.052,0.890,-5.197,-3.173,-5.027
0.612,-0.052,0.888,-5.211,-2.944,-4.818
0.612,-0.052,0.887,-5.241,-2.708,-4.597
0.612,-0.053,0.885,-5.262,-2.461,-4.375
0.612,-0.053,0.884,-5.286,-2.201,-4.150
0.612,-0.053,0.883,-5.320,-1.935,-3.922
0.612,-0.053,0.882,-5.357,-1.674,-3.689
0.612,-0.054,0.882,-5.419,-1.419,-3.458
0.612,-0.054,0.882,-5.504,-1.164,-3.230
0.612,-0.055,0.882,-5.591,-0.885,-3.001
0.612,-0.056,0.882,-5.676,-0.588,-2.760
0.612,-0.057,0.882,-5.755,-0.285,-2.508
0.612,-0.057,0.883,-5.833,0.042,-2.259
0.612,-0.058,0.883,-5.899,0.380,-2.011
0.612,-0.058,0.884,-5.976,0.737,-1.759
0.612,-0.058,0.884,-6.071,1.125,-1.497
0.612,-0.059,0.885,-6.174,1.535,-1.218
0.612,-0.059,0.885,-6.273,1.969,-0.916
0.612,-0.060,0.886,-6.365,2.428,-0.596
0.612,-0.060,0.887,-6.457,2.908,-0.262
0.612,-0.061,0.888,-6.563,3.396,0.082
0.611,-0.062,0.889,-6.677,3.893,0.432
0.611,-0.062,0.890,-6.790,4.395,0.801
0.610,-0.063,0.892,-6.897,4.910,1.186
0.610,-0.064,0.894,-6.998,5.443,1.588
0.610,-0.065,0.895,-7.079,6.008,2.003
0.609,-0.066,0.897,-7.147,6.595,2.428
0.609,-0.067,0.898,-7.197,7.211,2.866
0.608,-0.068,0.899,-7.223,7.852,3.295
0.608,-0.069,0.900,-7.214,8.528,3.732
0.607,-0.070,0.901,-7.187,9.241,4.181
0.606,-0.071,0.902,-7.157,9.976,4.641
0.605,-0.071,0.903,-7.126,10.724,5.095
0.604,-0.072,0.904,-7.102,11.476,5.540
0.602,-0.072,0.905,-7.082,12.237,5.972
0.600,-0.073,0.906,-7.070,12.996,6.394
0.599,-0.074,0.908,-7.045,13.765,6.803
0.597,-0.075,0.909,-6.995,14.545,7.221

0.565,0.126,1.299,-8.346,-3.072,4.231
0.589,0.125,1.321,-11.154,-15.651,1.315
0.615,0.123,1.339,-15.253,-23.332,-1.323
0.640,0.119,1.355,-20.259,-27.325,-3.500
0.664,0.114,1.369,-25.111,-28.845,-5.182
0.684,0.109,1.381,-29.258,-28.562,-6.290
0.699,0.105,1.391,-32.808,-27.773,-6.897
0.710,0.103,1.398,-35.736,-26.692,-6.979
0.718,0.102,1.400,-37.885,-25.542,-6.796
0.720,0.102,1.398,-39.227,-24.367,-6.452
0.718,0.102,1.391,-39.826,-23.236,-5.971
0.712,0.104,1.381,-39.807,-22.165,-5.481
0.704,0.108,1.369,-39.247,-21.214,-5.042
0.695,0.112,1.354,-38.447,-20.428,-4.652
0.684,0.118,1.339,-37.498,-19.893,-4.363
0.673,0.123,1.323,-36.491,-19.551,-4.166
0.662,0.130,1.307,-35.469,-19.442,-4.107
0.651,0.135,1.291,-34.421,-19.562,-4.162
0.642,0.140,1.276,-33.355,-19.896,-4.338
0.638,0.145,1.261,-32.335,-20.498,-4.622
0.631,0.150,1.246,-31.398,-21.213,-5.044
0.626,0.154,1.231,-30.532,-22.005,-5.587
0.622,0.156,1.216,-29.725,-22.822,-6.238
0.619,0.157,1.202,-28.961,-23.529,-6.894
0.617,0.157,1.188,-28.183,-24.139,-7.611
0.615,0.155,1.175,-27.354,-24.656,-8.385
0.613,0.152,1.164,-26.234,-25.159,-9.179
0.613,0.148,1.154,-24.903,-25.730,-9.910
0.613,0.145,1.147,-23.494,-26.358,-10.561
0.614,0.142,1.139,-22.126,-26.987,-11.128
0.615,0.140,1.132,-20.842,-27.581,-11.599
0.617,0.137,1.125,-19.598,-28.048,-11.933
0.619,0.135,1.117,-18.361,-28.367,-12.199
0.622,0.134,1.109,-17.166,-28.530,-12.424
0.625,0.134,1.102,-16.028,-28.539,-12.628
0.628,0.133,1.094,-14.933,-28.450,-12.753
0.630,0.132,1.087,-13.866,-28.316,-12.857
0.632,0.131,1.081,-12.845,-28.197,-12.905
0.634,0.130,1.075,-11.906,-28.090,-12.931
0.635,0.129,1.069,-11.033,-27.994,-12.956
0.636,0.129,1.063,-10.207,-27.912,-12.967
0.636,0.128,1.057,-9.468,-27.831,-12.971
0.636,0.128,1.050,-8.826,-27.723,-12.995
0.636,0.128,1.042,-8.290,-27.592,-13.029
0.636,0.129,1.035,-7.831,-27.407,-13.056
0.635,0.129,1.028,-7.426,-27.151,-13.104
0.635,0.130,1.020,-7.056,-26.861,-13.157
0.635,0.131,1.013,-6.712,-26.556,-13.232
0.634,0.132,1.006,-6.387,-26.254,-13.300
0.633,0.133,1.000,-6.050,-25.987,-13.361
0.632,0.134,0.993,-5.685,-25.781,-13.399
0.632,0.135,0.987,-5.300,-25.619,-13.407
0.631,0.136,0.981,-4.899,-25.472,-13.395
0.631,0.137,0.975,-4.500,-25.315,-13.416
0.630,0.138,0.969,-4.175,-25.146,-13.442
0.630,0.139,0.964,-3.943,-24.957,-13.475
0.630,0.140,0.960,-3.780,-24.763,-13.540
0.631,0.141,0.955,-3.688,-24.571,-13.600
0.631,0.141,0.951,-3.673,-24.376,-13.674
0.632,0.142,0.947,-3.716,-24.166,-13.750
0.632,0.143,0.943,-3.793,-23.949,-13.845
0.633,0.143,0.939,-3.858,-23.742,-13.949
0.634,0.143,0.935,-3.872,-23.548,-14.009
0.634,0.144,0.931,-3.815,-23.332,-14.063
0.635,0.144,0.927,-3.715,-23.091,-14.111
0.636,0.145,0.923,-3.581,-22.815,-14.136
0.636,0.145,0.920,-3.471,-22.481,-14.123
0.637,0.146,0.917,-3.411,-22.078,-14.075
0.638,0.147,0.914,-3.419,-21.635,-14.021
0.639,0.148,0.911,-3.511,-21.162,-13.950
0.640,0.148,0.908,-3.696,-20.680,-13.868
0.641,0.149,0.906,-3.941,-20.196,-13.777
0.642,0.149,0.903,-4.237,-19.735,-13.683
0.643,0.149,0.900,-4.522,-19.300,-13.579
0.644,0.150,0.897,-4.762,-18.889,-13.460
0.645,0.150,0.894,-4.918,-18.492,-13.327
0.645,0.150,0.891,-5.000,-18.104,-13.177
0.646,0.150,0.888,-5.025,-17.691,-13.014
0.646,0.150,0.884,-5.006,-17.245,-12.844
0.647,0.151,0.880,-4.962,-16.773,-12.653
0.647,0.151,0.877,-4.902,-16.291,-12.457
0.647,0.151,0.875,-4.832,-15.827,-12.256
0.648,0.150,0.872,-4.767,-15.396,-12.047
0.648,0.150,0.870,-4.730,-14.993,-11.835
0.649,0.150,0.867,-4.729,-14.610,-11.611
0.649,0.150,0.864,-4.756,-14.242,-11.392
0.650,0.150,0.862,-4.800,-13.865,-11.179
0.650,0.149,0.859,-4.869,-13.493,-10.962
0.651,0.149,0.857,-4.956,-13.132,-10.752
0.651,0.149,0.855,-5.052,-12.788,-10.546
0.652,0.149,0.852,-5.119,-12.428,-10.332
0.653,0.149,0.849,-5.163,-12.025,-10.105
0.653,0.148,0.846,-5.190,-11.597,-9.867
0.654,0.148,0.844,-5.182,-11.161,-9.610
0.655,0.147,0.842,-5.140,-10.721,-9.336
0.655,0.147,0.839,-5.077,-10.275,-9.042
0.656,0.147,0.837,-5.031,-9.818,-8.734
0.657,0.147,0.835,-4.998,-9.367,-8.420
0.657,0.146,0.833,-4.977,-8.933,-8.105
0.657,0.146,0.832,-4.961,-8.519,-7.793
0.658,0.146,0.830,-4.953,-8.129,-7.494
0.658,0.147,0.828,-4.966,-7.757,-7.204
0.658,0.147,0.826,-5.004,-7.398,-6.935
0.658,0.147,0.824,-5.073,-7.065,-6.689
0.657,0.147,0.823,-5.169,-6.768,-6.465
0.657,0.147,0.821,-5.260,-6.486,-6.259
0.657,0.147,0.818,-5.364,-6.193,-6.069
0.657,0.147,0.817,-5.512,-5.898,-5.886
0.657,0.147,0.815,-5.687,-5.604,-5.713
0.657,0.146,0.813,-5.870,-5.334,-5.543
0.656,0.146,0.811,-6.037,-5.085,-5.374
0.656,0.146,0.809,-6.165,-4.860,-5.194
0.656,0.145,0.807,-6.205,-4.647,-5.008
0.656,0.145,0.806,-6.186,-4.448,-4.816
0.656,0.145,0.804,-6.120,-4.269,-4.615
0.655,0.144,0.803,-6.008,-4.100,-4.417
0.655,0.144,0.801,-5.873,-3.940,-4.218
0.655,0.144,0.800,-5.744,-3.786,-4.020
0.655,0.144,0.800,-5.632,-3.636,-3.831

0.321,-0.262,1.364,-9.305,3.387,-5.077
0.302,-0.268,1.396,-12.784,3.699,-6.675
0.283,-0.282,1.417,-14.404,2.946,-9.035
0.276,-0.289,1.437,-15.354,2.750,-10.795
0.273,-0.295,1.451,-16.445,3.300,-11.933
0.263,-0.299,1.453,-17.014,4.448,-12.697
0.272,-0.307,1.444,-17.279,5.991,-13.271
0.253,-0.298,1.442,-16.932,6.260,-13.925
0.240,-0.290,1.441,-16.973,6.346,-14.268
0.235,-0.284,1.433,-17.102,7.151,-14.153
0.227,-0.279,1.423,-17.025,8.043,-13.685
0.217,-0.273,1.410,-16.599,8.597,-13.209
0.208,-0.264,1.397,-16.005,9.098,-12.802
0.200,-0.254,1.382,-15.474,9.353,-12.512
0.192,-0.244,1.365,-14.963,9.381,-12.341
0.184,-0.234,1.347,-14.363,9.183,-12.321
0.178,-0.224,1.329,-13.783,8.930,-12.383
0.172,-0.215,1.311,-13.272,8.580,-12.458
0.168,-0.207,1.295,-12.732,7.982,-12.580
0.165,-0.201,1.280,-12.135,7.238,-12.793
0.163,-0.197,1.267,-11.507,6.429,-13.018
0.161,-0.194,1.256,-10.851,5.583,-13.244
0.161,-0.191,1.246,-10.192,4.703,-13.452
0.160,-0.190,1.237,-9.554,3.838,-13.622
0.160,-0.189,1.229,-8.968,3.005,-13.745
0.159,-0.189,1.221,-8.443,2.177,-13.856
0.158,-0.189,1.213,-7.965,1.367,-13.939
0.157,-0.190,1.205,-7.480,0.538,-14.031
0.155,-0.191,1.196,-7.007,-0.275,-14.111
0.153,-0.191,1.189,-6.557,-1.100,-14.179
0.151,-0.191,1.181,-6.112,-1.972,-14.255
0.148,-0.190,1.175,-5.687,-2.855,-14.327
0.146,-0.189,1.168,-5.257,-3.793,-14.380
0.143,-0.188,1.161,-4.809,-4.757,-14.448
0.141,-0.187,1.153,-4.332,-5.761,-14.497
0.139,-0.185,1.146,-3.855,-6.823,-14.510
0.137,-0.183,1.138,-3.398,-7.957,-14.547
0.135,-0.181,1.132,-3.007,-9.153,-14.578
0.134,-0.179,1.126,-2.670,-10.337,-14.598
0.133,-0.177,1.120,-2.332,-11.505,-14.577
0.133,-0.176,1.115,-2.014,-12.641,-14.542
0.133,-0.174,1.111,-1.708,-13.853,-14.518
0.133,-0.173,1.107,-1.420,-15.026,-14.478
0.133,-0.172,1.102,-1.139,-16.073,-14.405
0.134,-0.171,1.098,-0.821,-17.133,-14.327
0.134,-0.170,1.095,-0.477,-18.222,-14.250
0.133,-0.169,1.092,-0.117,-19.292,-14.139
0.133,-0.167,1.088,0.298,-20.278,-14.015
0.134,-0.166,1.085,0.767,-21.224,-13.887
0.134,-0.164,1.082,1.256,-22.072,-13.757
0.134,-0.162,1.080,1.717,-22.764,-13.620
0.135,-0.159,1.078,2.102,-23.400,-13.494
0.136,-0.158,1.077,2.490,-24.005,-13.381
0.137,-0.157,1.076,2.883,-24.541,-13.254
0.139,-0.156,1.076,3.237,-24.985,-13.141
0.141,-0.155,1.075,3.496,-25.394,-13.059
0.142,-0.154,1.075,3.684,-25.771,-12.994
0.144,-0.153,1.074,3.809,-26.082,-12.944
0.146,-0.152,1.074,3.870,-26.356,-12.897
0.148,-0.151,1.073,3.888,-26.616,-12.863
0.150,-0.150,1.071,3.892,-26.842,-12.844
0.153,-0.149,1.069,3.889,-26.958,-12.815
0.155,-0.148,1.066,3.908,-26.963,-12.766
0.158,-0.147,1.065,3.976,-26.909,-12.692
0.160,-0.146,1.063,4.071,-26.808,-12.607
0.162,-0.145,1.062,4.187,-26.636,-12.519
0.165,-0.144,1.062,4.296,-26.445,-12.428
0.167,-0.142,1.061,4.391,-26.252,-12.331
0.170,-0.141,1.061,4.433,-26.073,-12.240
0.172,-0.140,1.061,4.431,-25.929,-12.157
0.174,-0.138,1.059,4.383,-25.822,-12.088
0.176,-0.137,1.058,4.300,-25.711,-12.039
0.179,-0.135,1.056,4.212,-25.586,-12.003
0.181,-0.134,1.054,4.142,-25.450,-11.974
0.183,-0.132,1.052,4.075,-25.333,-11.951
0.185,-0.130,1.050,4.003,-25.232,-11.939
0.187,-0.128,1.047,3.951,-25.105,-11.940
0.189,-0.127,1.044,3.921,-24.967,-11.930
0.191,-0.125,1.042,3.903,-24.822,-11.925
0.193,-0.124,1.040,3.869,-24.680,-11.920
0.195,-0.122,1.038,3.815,-24.558,-11.913
0.197,-0.121,1.037,3.759,-24.451,-11.904
0.200,-0.119,1.035,3.714,-24.408,-11.883
0.202,-0.118,1.034,3.694,-24.395,-11.860
0.204,-0.117,1.032,3.707,-24.405,-11.834
0.206,-0.116,1.029,3.773,-24.422,-11.800
0.209,-0.115,1.027,3.865,-24.409,-11.767
0.211,-0.113,1.025,3.962,-24.426,-11.737
0.213,-0.111,1.022,4.063,-24.437,-11.709
0.215,-0.108,1.019,4.170,-24.447,-11.681
0.217,-0.106,1.016,4.305,-24.452,-11.679
0.220,-0.104,1.014,4.457,-24.497,-11.679
0.222,-0.102,1.013,4.594,-24.606,-11.690
0.224,-0.101,1.012,4.714,-24.776,-11.733
0.226,-0.099,1.011,4.790,-25.020,-11.779
0.229,-0.097,1.010,4.859,-25.343,-11.877
0.231,-0.096,1.009,4.933,-25.763,-11.977
0.234,-0.094,1.008,4.989,-26.263,-12.060
0.236,-0.092,1.006,5.057,-26.826,-12.201
0.238,-0.089,1.004,5.134,-27.416,-12.343
0.241,-0.087,1.001,5.269,-27.933,-12.509
0.244,-0.084,0.998,5.456,-28.357,-12.680
0.247,-0.081,0.995,5.674,-28.703,-12.902
0.250,-0.078,0.992,5.922,-28.986,-13.133
0.253,-0.075,0.990,6.210,-29.273,-13.393
0.256,-0.071,0.987,6.521,-29.581,-13.706
0.259,-0.068,0.985,6.781,-29.969,-14.020
0.262,-0.066,0.983,7.011,-30.411,-14.450
0.265,-0.063,0.982,7.165,-31.034,-14.838
0.268,-0.061,0.981,7.306,-31.773,-15.304
0.272,-0.059,0.980,7.436,-32.652,-15.727
0.276,-0.057,0.978,7.623,-33.566,-16.208
0.280,-0.054,0.976,7.822,-34.478,-16.684
0.283,-0.051,0.973,8.026,-35.357,-17.079
0.287,-0.048,0.970,8.281,-36.081,-17.529
0.292,-0.045,0.968,8.556,-36.733,-18.086
0.295,-0.041,0.965,8.855,-37.348,-18.632
0.299,-0.037,0.963,9.187,-38.019,-19.117
0.303,-0.033,0.961,9.547,-38.736,-19.703

0.247,-0.982,-0.670,11.352,-32.854,-28.984
0.282,-0.995,-0.697,16.977,-23.752,-35.752
0.316,-1.006,-0.708,21.934,-13.386,-40.830
0.325,-1.016,-0.718,25.658,-7.826,-46.856
0.319,-1.020,-0.721,27.126,-6.159,-51.784
0.324,-1.022,-0.726,27.213,-4.678,-54.405
0.330,-1.025,-0.731,25.832,-3.935,-54.686
0.337,-1.028,-0.738,24.140,-3.331,-53.727
0.362,-1.036,-0.750,22.673,0.323,-52.407
0.387,-1.046,-0.759,21.373,5.225,-51.112
0.401,-1.055,-0.766,20.329,9.619,-49.573
0.411,-1.063,-0.773,19.499,13.721,-47.591
0.421,-1.069,-0.778,18.848,17.774,-45.374
0.420,-1.074,-0.779,18.128,19.608,-43.533
0.415,-1.079,-0.780,17.361,20.682,-42.265
0.421,-1.078,-0.782,16.494,22.107,-40.819
0.426,-1.077,-0.782,15.519,22.832,-39.239
0.430,-1.076,-0.782,14.622,23.621,-37.682
0.431,-1.074,-0.780,13.715,23.935,-36.237
0.430,-1.071,-0.777,12.791,24.085,-34.883
0.431,-1.069,-0.773,11.974,24.182,-33.509
0.431,-1.066,-0.769,11.349,24.017,-32.223
0.431,-1.063,-0.765,10.933,23.731,-31.030
0.431,-1.059,-0.761,10.705,23.375,-29.812
0.430,-1.054,-0.755,10.585,22.905,-28.608
0.430,-1.048,-0.749,10.477,22.333,-27.451
0.430,-1.041,-0.742,10.358,21.767,-26.366
0.431,-1.034,-0.735,10.184,21.375,-25.588
0.433,-1.024,-0.728,9.914,21.115,-24.930
0.434,-1.015,-0.721,9.485,21.009,-24.350
0.436,-1.005,-0.713,8.887,21.077,-23.907
0.438,-0.996,-0.705,8.106,21.394,-23.690
0.440,-0.987,-0.698,7.255,21.819,-23.600
0.440,-0.978,-0.690,6.426,22.184,-23.576
0.440,-0.970,-0.683,5.702,22.318,-23.418
0.438,-0.962,-0.676,5.166,22.224,-22.965
0.437,-0.953,-0.669,4.780,21.890,-22.348
0.436,-0.944,-0.662,4.498,21.415,-21.602
0.437,-0.934,-0.655,4.278,20.913,-20.872
0.439,-0.923,-0.648,4.078,20.535,-20.207
0.442,-0.913,-0.641,3.812,20.230,-19.636
0.444,-0.902,-0.634,3.472,19.959,-19.125
0.446,-0.893,-0.627,3.103,19.687,-18.628
0.447,-0.886,-0.621,2.755,19.427,-18.181
0.449,-0.878,-0.615,2.367,19.182,-17.731
0.451,-0.870,-0.609,1.904,18.925,-17.315
0.453,-0.864,-0.604,1.460,18.706,-16.919
0.456,-0.858,-0.599,1.135,18.528,-16.533
0.458,-0.851,-0.594,0.893,18.387,-16.175
0.461,-0.846,-0.590,0.713,18.303,-15.834
0.464,-0.841,-0.586,0.596,18.257,-15.522
0.466,-0.835,-0.583,0.512,18.230,-15.273
0.469,-0.830,-0.580,0.418,18.224,-15.085
0.472,-0.825,-0.577,0.308,18.236,-14.909
0.474,-0.821,-0.574,0.210,18.222,-14.739
0.476,-0.817,-0.570,0.115,18.207,-14.595
0.479,-0.814,-0.568,0.016,18.192,-14.426
0.480,-0.810,-0.565,-0.093,18.113,-14.275
0.482,-0.807,-0.563,-0.223,18.010,-14.149
0.484,-0.804,-0.561,-0.374,17.919,-14.023
0.488,-0.802,-0.559,-0.515,17.833,-13.837
0.489,-0.800,-0.556,-0.596,17.714,-13.660
0.491,-0.797,-0.554,-0.655,17.526,-13.513
0.492,-0.795,-0.551,-0.697,17.268,-13.372
0.494,-0.794,-0.549,-0.693,16.991,-13.215
0.496,-0.792,-0.547,-0.642,16.671,-13.012
0.498,-0.790,-0.545,-0.572,16.331,-12.836
0.500,-0.788,-0.542,-0.498,15.970,-12.684
0.501,-0.787,-0.540,-0.427,15.612,-12.533
0.503,-0.785,-0.538,-0.331,15.252,-12.359
0.504,-0.783,-0.536,-0.217,14.879,-12.180
0.506,-0.780,-0.533,-0.093,14.456,-12.004
0.507,-0.779,-0.531,0.032,14.043,-11.853
0.508,-0.776,-0.529,0.153,13.655,-11.684
0.509,-0.774,-0.526,0.241,12.544,-11.493
0.510,-0.773,-0.524,0.288,12.131,-11.318
0.511,-0.771,-0.521,0.301,11.746,-11.156
0.512,-0.769,-0.518,0.285,11.375,-10.972
0.514,-0.768,-0.516,0.251,11.013,-10.781
0.515,-0.766,-0.513,0.215,10.688,-10.613
0.516,-0.764,-0.511,0.160,10.385,-10.445
0.517,-0.763,-0.509,0.113,10.104,-10.282
0.518,-0.761,-0.506,0.082,9.839,-10.125
0.518,-0.759,-0.505,0.085,9.594,-9.997
0.520,-0.758,-0.503,0.120,9.378,-9.865
0.520,-0.756,-0.501,0.186,9.184,-9.725
0.521,-0.755,-0.500,0.274,9.003,-9.595
0.522,-0.754,-0.498,0.397,8.833,-9.495
0.523,-0.754,-0.497,0.529,8.690,-9.383
0.524,-0.752,-0.495,0.676,8.536,-9.267
0.526,-0.751,-0.493,0.781,8.378,-9.157
0.527,-0.750,-0.492,0.853,8.221,-9.034
0.528,-0.749,-0.490,0.901,8.035,-8.896
0.529,-0.749,-0.488,0.936,7.845,-8.786
0.530,-0.748,-0.487,0.948,7.673,-8.659
0.532,-0.747,-0.486,0.971,7.490,-8.510
0.533,-0.746,-0.485,1.012,7.319,-8.368
0.534,-0.746,-0.484,1.054,7.160,-8.213
0.535,-0.745,-0.483,1.098,6.993,-8.057
0.537,-0.744,-0.482,1.137,6.817,-7.901
0.538,-0.744,-0.481,1.158,6.633,-7.732
0.539,-0.743,-0.480,1.157,6.426,-7.548
0.540,-0.743,-0.479,1.126,6.183,-7.343
0.541,-0.742,-0.478,1.071,5.892,-7.116
0.542,-0.742,-0.478,0.988,5.559,-6.863
0.543,-0.741,-0.477,0.869,5.195,-6.608
0.544,-0.741,-0.476,0.735,4.802,-6.344
0.545,-0.741,-0.476,0.605,4.405,-6.077
0.545,-0.741,-0.475,0.500,4.020,-5.818
0.546,-0.741,-0.475,0.403,3.671,-5.569
0.547,-0.741,-0.475,0.311,3.341,-5.350
0.547,-0.741,-0.475,0.210,3.082,-5.130
0.548,-0.741,-0.476,0.133,2.857,-4.950
0.549,-0.742,-0.477,0.040,2.649,-4.742
0.550,-0.743,-0.477,-0.048,2.393,-4.555
0.551,-0.743,-0.478,-0.167,2.145,-4.319
0.552,-0.742,-0.478,-0.330,1.855,-4.071
0.553,-0.742,-0.478,-0.569,1.516,-3.810
0.554,-0.742,-0.478,-0.847,1.156,-3.528

0.294,-0.968,-0.638,0.624,3.623,-6.557
0.299,-0.968,-0.633,2.242,5.862,-9.206
0.304,-0.968,-0.627,3.788,8.083,-11.409
0.309,-0.967,-0.622,5.185,10.214,-13.498
0.315,-0.964,-0.618,6.042,12.303,-15.332
0.321,-0.961,-0.614,6.457,14.408,-17.042
0.327,-0.958,-0.613,6.587,16.408,-18.710
0.334,-0.953,-0.611,6.500,18.194,-20.320
0.340,-0.948,-0.608,6.251,19.681,-21.760
0.345,-0.945,-0.606,6.034,20.703,-22.551
0.349,-0.941,-0.604,5.744,21.360,-23.519
0.357,-0.940,-0.602,5.525,21.984,-24.578
0.366,-0.940,-0.599,5.494,22.877,-25.354
0.375,-0.941,-0.596,5.827,23.927,-25.741
0.383,-0.942,-0.593,6.445,24.866,-26.088
0.390,-0.941,-0.590,7.162,25.598,-26.439
0.398,-0.939,-0.586,7.793,26.321,-26.647
0.406,-0.935,-0.583,8.253,27.054,-26.731
0.413,-0.931,-0.580,8.625,27.686,-26.736
0.420,-0.927,-0.576,8.877,28.123,-26.762
0.426,-0.922,-0.572,8.976,28.373,-26.790
0.432,-0.917,-0.569,8.977,28.510,-26.786
0.439,-0.913,-0.564,8.971,28.588,-26.717
0.445,-0.910,-0.560,8.954,28.629,-26.585
0.452,-0.908,-0.557,8.920,28.669,-26.424
0.459,-0.906,-0.554,8.882,28.712,-26.203
0.467,-0.904,-0.550,8.851,28.712,-25.903
0.473,-0.902,-0.545,8.820,28.581,-25.567
0.480,-0.900,-0.541,8.762,28.362,-25.180
0.486,-0.897,-0.536,8.659,28.064,-24.765
0.491,-0.895,-0.532,8.467,27.677,-24.370
0.497,-0.891,-0.527,8.211,27.227,-23.970
0.502,-0.887,-0.521,7.910,26.742,-23.539
0.507,-0.883,-0.516,7.624,26.244,-23.087
0.511,-0.878,-0.510,7.346,25.731,-22.631
0.514,-0.874,-0.504,7.064,25.176,-22.202
0.518,-0.869,-0.499,6.782,24.607,-21.788
0.521,-0.866,-0.495,6.508,24.042,-21.380
0.524,-0.862,-0.490,6.261,23.472,-20.966
0.526,-0.859,-0.486,6.018,22.897,-20.545
0.529,-0.856,-0.482,5.780,22.306,-20.125
0.532,-0.852,-0.478,5.540,21.702,-19.712
0.534,-0.849,-0.473,5.312,21.096,-19.303
0.537,-0.846,-0.469,5.091,20.496,-18.893
0.540,-0.844,-0.465,4.881,19.917,-18.492
0.542,-0.840,-0.461,4.708,19.350,-18.104
0.544,-0.837,-0.456,4.545,18.777,-17.726
0.546,-0.833,-0.452,4.375,18.202,-17.366
0.548,-0.830,-0.448,4.187,17.644,-17.023
0.550,-0.827,-0.444,4.006,17.126,-16.690
0.552,-0.824,-0.441,3.869,16.656,-16.353
0.554,-0.822,-0.438,3.747,16.209,-16.023
0.555,-0.819,-0.435,3.629,15.783,-15.696
0.557,-0.817,-0.432,3.522,15.370,-15.368
0.558,-0.814,-0.429,3.402,14.959,-15.037
0.559,-0.812,-0.426,3.269,14.542,-14.708
0.560,-0.810,-0.423,3.121,14.123,-14.375
0.562,-0.808,-0.419,2.994,13.723,-14.038
0.563,-0.805,-0.417,2.887,13.346,-13.710
0.564,-0.803,-0.414,2.796,12.993,-13.387
0.565,-0.801,-0.411,2.715,12.656,-13.075
0.567,-0.799,-0.409,2.634,12.327,-12.775
0.568,-0.797,-0.407,2.552,12.015,-12.482
0.569,-0.795,-0.405,2.478,11.716,-12.203
0.571,-0.793,-0.403,2.429,11.427,-11.928
0.572,-0.791,-0.401,2.388,11.134,-11.660
0.573,-0.789,-0.399,2.344,10.835,-11.395
0.574,-0.786,-0.397,2.281,10.530,-11.144
0.575,-0.784,-0.395,2.188,10.206,-10.907
0.576,-0.782,-0.393,2.075,9.867,-10.669
0.577,-0.780,-0.391,1.964,9.521,-10.424
0.578,-0.777,-0.389,1.843,9.167,-10.186
0.579,-0.775,-0.387,1.712,8.814,-9.947
0.580,-0.774,-0.385,1.588,8.482,-9.716
0.581,-0.772,-0.384,1.464,8.190,-9.489
0.582,-0.771,-0.383,1.368,7.922,-9.264
0.584,-0.770,-0.382,1.299,7.671,-9.046
0.585,-0.769,-0.381,1.239,7.430,-8.842
0.586,-0.767,-0.380,1.204,7.210,-8.651
0.586,-0.766,-0.378,1.187,6.992,-8.467
0.587,-0.764,-0.377,1.176,6.763,-8.298
0.587,-0.763,-0.375,1.158,6.524,-8.140
0.588,-0.761,-0.373,1.117,6.284,-7.992
0.588,-0.760,-0.371,1.060,6.044,-7.846
0.589,-0.758,-0.370,0.992,5.804,-7.710
0.589,-0.757,-0.368,0.919,5.579,-7.573
0.590,-0.756,-0.367,0.850,5.366,-7.435
0.591,-0.755,-0.366,0.798,5.172,-7.295
0.591,-0.754,-0.364,0.746,4.987,-7.151
0.592,-0.752,-0.364,0.690,4.810,-7.014
0.593,-0.751,-0.363,0.641,4.640,-6.881
0.593,-0.750,-0.362,0.607,4.476,-6.754
0.594,-0.749,-0.361,0.587,4.310,-6.623
0.595,-0.748,-0.359,0.573,4.135,-6.494
0.595,-0.746,-0.358,0.554,3.943,-6.363
0.596,-0.745,-0.356,0.516,3.743,-6.240
0.597,-0.743,-0.355,0.452,3.557,-6.125
0.598,-0.742,-0.354,0.386,3.399,-6.010
0.598,-0.742,-0.353,0.322,3.263,-5.890
0.599,-0.741,-0.352,0.248,3.139,-5.770
0.599,-0.740,-0.352,0.142,3.011,-5.659
0.600,-0.740,-0.351,0.022,2.888,-5.557
0.600,-0.739,-0.350,-0.084,2.779,-5.459
0.601,-0.739,-0.350,-0.151,2.680,-5.359
0.601,-0.739,-0.349,-0.187,2.586,-5.261
0.601,-0.739,-0.348,-0.190,2.493,-5.159
0.602,-0.738,-0.347,-0.171,2.399,-5.063
0.602,-0.737,-0.346,-0.176,2.301,-4.976
0.602,-0.736,-0.345,-0.204,2.205,-4.899
0.603,-0.735,-0.344,-0.234,2.124,-4.825
0.603,-0.735,-0.343,-0.254,2.056,-4.752
0.604,-0.735,-0.343,-0.272,2.009,-4.666
0.605,-0.734,-0.342,-0.307,1.955,-4.610
0.605,-0.734,-0.342,-0.373,1.939,-4.548
0.606,-0.733,-0.342,-0.436,1.960,-4.467
0.606,-0.733,-0.342,-0.472,1.984,-4.393
0.607,-0.733,-0.341,-0.503,1.961,-4.317
0.607,-0.733,-0.341,-0.529,1.876,-4.246
0.607,-0.732,-0.340,-0.566,1.767,-4.175

0.229,-0.848,-0.834,-0.487,5.350,-8.251
0.233,-0.850,-0.833,-0.568,8.912,-11.932
0.236,-0.851,-0.831,-0.718,12.355,-15.168
0.238,-0.853,-0.829,-0.775,15.446,-18.037
0.241,-0.855,-0.827,-0.667,17.933,-20.533
0.244,-0.859,-0.823,-0.251,20.167,-22.634
0.247,-0.862,-0.820,0.482,22.126,-24.403
0.251,-0.863,-0.816,1.440,24.085,-25.808
0.256,-0.864,-0.813,2.461,26.106,-27.004
0.260,-0.863,-0.810,3.358,28.159,-28.142
0.265,-0.861,-0.807,4.014,30.477,-29.267
0.269,-0.859,-0.804,4.431,32.756,-30.265
0.274,-0.857,-0.801,4.658,34.669,-31.146
0.277,-0.855,-0.796,4.691,36.256,-31.810
0.281,-0.853,-0.792,4.686,37.402,-32.282
0.284,-0.853,-0.788,4.738,38.152,-32.673
0.289,-0.852,-0.785,4.886,38.625,-32.934
0.293,-0.853,-0.782,5.212,38.934,-33.076
0.298,-0.853,-0.778,5.729,39.094,-33.117
0.303,-0.853,-0.773,6.410,39.114,-33.100
0.308,-0.851,-0.768,7.147,39.112,-33.066
0.313,-0.849,-0.764,7.820,39.143,-32.982
0.319,-0.847,-0.759,8.443,39.142,-32.899
0.321,-0.843,-0.755,8.975,39.978,-32.937
0.334,-0.839,-0.753,9.312,41.895,-33.108
0.343,-0.838,-0.751,9.916,42.968,-32.979
0.346,-0.833,-0.748,10.161,43.435,-33.103
0.349,-0.829,-0.745,10.192,43.606,-33.228
0.355,-0.826,-0.742,10.195,43.468,-33.109
0.360,-0.825,-0.738,10.341,43.407,-32.964
0.368,-0.824,-0.734,10.757,43.426,-32.828
0.375,-0.823,-0.729,11.284,43.411,-32.734
0.383,-0.822,-0.724,11.847,43.471,-32.693
0.390,-0.821,-0.718,12.445,43.480,-32.530
0.397,-0.819,-0.713,13.061,43.297,-32.216
0.403,-0.817,-0.708,13.594,43.109,-31.815
0.409,-0.813,-0.702,13.985,42.863,-31.429
0.415,-0.808,-0.697,14.184,42.587,-31.035
0.421,-0.804,-0.692,14.201,42.266,-30.649
0.427,-0.800,-0.688,14.133,41.944,-30.264
0.434,-0.797,-0.683,14.006,41.574,-29.875
0.440,-0.795,-0.678,13.841,41.156,-29.469
0.446,-0.793,-0.672,13.662,40.677,-28.968
0.452,-0.793,-0.667,13.502,40.118,-28.462
0.458,-0.792,-0.661,13.357,39.493,-28.009
0.464,-0.790,-0.656,13.173,38.818,-27.558
0.470,-0.788,-0.650,12.939,38.107,-27.030
0.476,-0.787,-0.644,12.696,37.383,-26.469
0.481,-0.785,-0.639,12.445,36.591,-25.914
0.485,-0.783,-0.634,12.179,35.751,-25.421
0.490,-0.780,-0.629,11.888,34.928,-24.923
0.496,-0.777,-0.624,11.583,34.101,-24.419
0.500,-0.774,-0.619,11.266,33.227,-23.937
0.504,-0.771,-0.613,10.948,32.272,-23.472
0.508,-0.768,-0.608,10.658,31.281,-23.001
0.511,-0.767,-0.603,10.433,30.255,-22.531
0.515,-0.765,-0.597,10.243,29.232,-22.057
0.518,-0.763,-0.591,10.073,28.221,-21.580
0.522,-0.760,-0.586,9.897,27.216,-21.108
0.525,-0.758,-0.580,9.707,26.235,-20.643
0.527,-0.755,-0.574,9.471,25.293,-20.198
0.530,-0.753,-0.569,9.204,24.424,-19.768
0.533,-0.750,-0.565,8.906,23.631,-19.349
0.536,-0.747,-0.560,8.603,22.900,-18.943
0.538,-0.744,-0.555,8.315,22.226,-18.543
0.541,-0.742,-0.551,8.066,21.562,-18.158
0.543,-0.740,-0.546,7.841,20.895,-17.776
0.545,-0.738,-0.541,7.647,20.256,-17.386
0.547,-0.737,-0.537,7.476,19.647,-17.002
0.549,-0.735,-0.533,7.313,19.071,-16.627
0.551,-0.734,-0.529,7.153,18.524,-16.261
0.554,-0.732,-0.525,6.989,18.015,-15.901
0.556,-0.730,-0.521,6.818,17.531,-15.550
0.558,-0.728,-0.517,6.639,17.079,-15.209
0.559,-0.726,-0.513,6.454,16.652,-14.883
0.561,-0.724,-0.510,6.263,16.240,-14.568
0.563,-0.722,-0.507,6.076,15.832,-14.265
0.565,-0.721,-0.504,5.901,15.425,-13.971
0.566,-0.719,-0.501,5.736,15.038,-13.679
0.568,-0.718,-0.498,5.576,14.663,-13.380
0.570,-0.717,-0.495,5.402,14.298,-13.091
0.571,-0.716,-0.492,5.229,13.938,-12.812
0.573,-0.714,-0.490,5.065,13.584,-12.542
0.574,-0.713,-0.487,4.909,13.242,-12.271
0.575,-0.712,-0.485,4.741,12.911,-11.999
0.577,-0.710,-0.482,4.546,12.559,-11.726
0.578,-0.708,-0.479,4.328,12.211,-11.467
0.579,-0.706,-0.477,4.103,11.869,-11.219
0.580,-0.705,-0.475,3.908,11.556,-10.977
0.582,-0.705,-0.474,3.745,11.265,-10.748
0.583,-0.704,-0.472,3.608,11.025,-10.526
0.585,-0.703,-0.471,3.504,10.805,-10.308
0.586,-0.702,-0.469,3.442,10.598,-10.090
0.587,-0.702,-0.468,3.424,10.381,-9.901
0.589,-0.701,-0.466,3.413,10.175,-9.691
0.589,-0.700,-0.465,3.396,9.938,-9.481
0.591,-0.699,-0.463,3.350,9.699,-9.278
0.591,-0.698,-0.461,3.288,9.432,-9.089
0.592,-0.697,-0.459,3.215,9.160,-8.905
0.593,-0.696,-0.458,3.115,8.880,-8.705
0.595,-0.695,-0.456,2.996,8.590,-8.512
0.596,-0.694,-0.454,2.870,8.302,-8.326
0.597,-0.693,-0.453,2.766,8.034,-8.149
0.598,-0.693,-0.451,2.697,7.779,-7.974
0.598,-0.692,-0.450,2.642,7.537,-7.785
0.599,-0.692,-0.449,2.606,7.302,-7.598
0.600,-0.691,-0.448,2.580,7.083,-7.424
0.601,-0.691,-0.447,2.562,6.889,-7.258
0.602,-0.690,-0.445,2.544,6.716,-7.089
0.603,-0.689,-0.444,2.510,6.562,-6.907
0.604,-0.688,-0.443,2.448,6.410,-6.731
0.605,-0.687,-0.441,2.363,6.270,-6.563
0.606,-0.687,-0.440,2.283,6.122,-6.399
0.607,-0.687,-0.439,2.200,5.973,-6.228
0.607,-0.686,-0.438,2.118,5.819,-6.054
0.608,-0.686,-0.436,2.040,5.665,-5.883
0.609,-0.686,-0.435,1.964,5.507,-5.712
0.609,-0.685,-0.434,1.900,5.354,-5.540
0.610,-0.685,-0.433,1.845,5.217,-5.370

0.380,-0.191,1.358,2.419,0.040,-5.476
0.375,-0.187,1.369,2.446,-4.577,-5.835
0.368,-0.179,1.379,2.408,-7.841,-6.492
0.361,-0.171,1.385,2.012,-10.276,-7.183
0.353,-0.164,1.391,1.166,-13.708,-7.912
0.346,-0.160,1.398,-0.111,-18.338,-8.650
0.342,-0.159,1.394,-2.029,-22.230,-9.192
0.344,-0.159,1.384,-3.769,-24.164,-9.556
0.352,-0.159,1.374,-5.105,-24.354,-9.730
0.357,-0.160,1.368,-5.888,-24.200,-9.736
0.360,-0.163,1.367,-5.918,-24.015,-9.644
0.360,-0.165,1.368,-5.639,-23.830,-9.561
0.362,-0.163,1.372,-5.364,-23.467,-9.479
0.365,-0.157,1.376,-5.739,-22.562,-9.413
0.367,-0.151,1.377,-6.788,-21.510,-9.337
0.363,-0.147,1.375,-8.235,-20.644,-9.279
0.360,-0.144,1.371,-10.127,-19.879,-9.118
0.357,-0.141,1.365,-12.610,-19.241,-8.884
0.353,-0.138,1.357,-15.173,-18.775,-8.653
0.349,-0.135,1.347,-17.391,-18.389,-8.431
0.344,-0.133,1.337,-18.908,-18.057,-8.174
0.339,-0.130,1.327,-19.515,-17.789,-7.902
0.334,-0.128,1.317,-19.677,-17.589,-7.639
0.330,-0.125,1.307,-19.621,-17.521,-7.378
0.325,-0.121,1.296,-19.476,-17.505,-7.139
0.321,-0.117,1.285,-19.317,-17.606,-6.943
0.316,-0.113,1.269,-19.155,-17.861,-6.789
0.313,-0.110,1.256,-18.970,-18.134,-6.661
0.309,-0.107,1.243,-18.727,-18.422,-6.535
0.306,-0.104,1.232,-18.437,-18.726,-6.406
0.303,-0.101,1.221,-18.085,-19.129,-6.314
0.300,-0.098,1.212,-17.677,-19.623,-6.248
0.298,-0.096,1.203,-17.167,-20.149,-6.203
0.296,-0.093,1.195,-16.565,-20.693,-6.180
0.295,-0.091,1.187,-15.868,-21.263,-6.164
0.294,-0.088,1.180,-15.158,-21.888,-6.144
0.293,-0.086,1.173,-14.412,-22.509,-6.161
0.293,-0.084,1.165,-13.631,-23.045,-6.219
0.295,-0.082,1.160,-12.870,-23.488,-6.291
0.297,-0.080,1.155,-12.144,-23.844,-6.379
0.299,-0.079,1.152,-11.438,-24.133,-6.481
0.301,-0.078,1.149,-10.762,-24.368,-6.594
0.304,-0.077,1.147,-10.135,-24.565,-6.727
0.307,-0.075,1.145,-9.558,-24.740,-6.882
0.310,-0.074,1.142,-9.041,-24.898,-7.044
0.313,-0.073,1.140,-8.566,-25.049,-7.198
0.316,-0.073,1.136,-8.122,-25.189,-7.347
0.319,-0.073,1.132,-7.667,-25.299,-7.486
0.322,-0.072,1.127,-7.196,-25.356,-7.598
0.325,-0.071,1.122,-6.709,-25.330,-7.696
0.328,-0.070,1.118,-6.246,-25.203,-7.781
0.331,-0.070,1.114,-5.804,-25.009,-7.841
0.334,-0.069,1.110,-5.358,-24.777,-7.886
0.337,-0.068,1.107,-4.916,-24.542,-7.922
0.339,-0.067,1.104,-4.495,-24.294,-7.951
0.342,-0.067,1.101,-4.126,-24.057,-7.981
0.345,-0.066,1.099,-3.787,-23.857,-8.014
0.347,-0.065,1.095,-3.496,-23.703,-8.040
0.350,-0.065,1.091,-3.208,-23.577,-8.053
0.352,-0.065,1.087,-2.912,-23.472,-8.061
0.355,-0.065,1.081,-2.629,-23.354,-8.051
0.357,-0.064,1.075,-2.320,-23.176,-8.028
0.360,-0.064,1.069,-1.967,-22.945,-8.004
0.362,-0.063,1.064,-1.565,-22.652,-7.975
0.365,-0.063,1.060,-1.128,-22.326,-7.938
0.367,-0.062,1.057,-0.669,-21.980,-7.896
0.370,-0.061,1.054,-0.240,-21.632,-7.858
0.372,-0.061,1.051,0.150,-21.307,-7.818
0.374,-0.060,1.049,0.480,-21.007,-7.783
0.376,-0.059,1.046,0.760,-20.745,-7.747
0.379,-0.059,1.043,0.965,-20.534,-7.719
0.381,-0.059,1.040,1.117,-20.389,-7.700
0.384,-0.058,1.037,1.221,-20.277,-7.685
0.386,-0.058,1.033,1.281,-20.185,-7.680
0.389,-0.058,1.029,1.340,-20.078,-7.669
0.391,-0.057,1.025,1.399,-19.919,-7.645
0.394,-0.056,1.021,1.476,-19.691,-7.618
0.396,-0.055,1.017,1.590,-19.420,-7.590
0.398,-0.054,1.014,1.738,-19.115,-7.561
0.400,-0.053,1.011,1.912,-18.790,-7.535
0.402,-0.052,1.009,2.081,-18.464,-7.517
0.403,-0.051,1.007,2.214,-18.162,-7.506
0.405,-0.049,1.005,2.297,-17.894,-7.510
0.406,-0.048,1.003,2.326,-17.686,-7.532
0.407,-0.048,1.000,2.311,-17.522,-7.566
0.409,-0.047,0.998,2.285,-17.370,-7.608
0.410,-0.046,0.994,2.258,-17.204,-7.656
0.412,-0.045,0.991,2.245,-17.023,-7.697
0.413,-0.044,0.989,2.223,-16.850,-7.725
0.415,-0.042,0.986,2.223,-16.675,-7.753
0.416,-0.041,0.983,2.258,-16.475,-7.778
0.418,-0.040,0.980,2.315,-16.260,-7.797
0.420,-0.039,0.978,2.399,-16.037,-7.798
0.421,-0.038,0.976,2.489,-15.832,-7.792
0.422,-0.037,0.974,2.591,-15.645,-7.784
0.424,-0.036,0.972,2.703,-15.480,-7.776
0.425,-0.035,0.971,2.821,-15.328,-7.764
0.427,-0.035,0.969,2.944,-15.196,-7.755
0.428,-0.033,0.967,3.058,-15.085,-7.750
0.429,-0.032,0.965,3.168,-14.992,-7.748
0.430,-0.031,0.963,3.280,-14.916,-7.749
0.432,-0.030,0.962,3.399,-14.853,-7.746
0.433,-0.029,0.960,3.489,-14.804,-7.742
0.435,-0.028,0.958,3.546,-14.758,-7.776
0.436,-0.026,0.956,3.588,-14.694,-7.787
0.438,-0.025,0.954,3.626,-14.616,-7.789
0.440,-0.024,0.952,3.670,-14.498,-7.825
0.441,-0.022,0.950,3.702,-14.405,-7.831
0.442,-0.021,0.949,3.748,-14.300,-7.856
0.444,-0.020,0.948,3.811,-14.206,-7.866
0.445,-0.019,0.946,3.902,-14.142,-7.873
0.446,-0.017,0.946,3.973,-14.126,-7.899
0.447,-0.016,0.944,4.049,-14.110,-7.932
0.449,-0.015,0.942,4.153,-14.095,-7.956
0.450,-0.014,0.939,4.294,-14.080,-8.006
0.451,-0.013,0.937,4.451,-14.031,-8.064
0.453,-0.011,0.935,4.608,-13.955,-8.120
0.454,-0.010,0.934,4.727,-13.893,-8.183
0.455,-0.008,0.933,4.820,-13.850,-8.245

0.703,-0.070,1.136,4.352,-10.842,-8.937
0.705,-0.071,1.143,3.882,-8.542,-9.376
0.708,-0.071,1.148,3.408,-7.163,-9.471
0.710,-0.071,1.153,2.937,-6.361,-9.335
0.713,-0.071,1.158,2.415,-6.060,-9.021
0.714,-0.070,1.163,1.843,-7.040,-8.534
0.714,-0.070,1.168,1.200,-8.308,-7.868
0.714,-0.069,1.171,0.534,-10.489,-7.022
0.715,-0.069,1.173,-0.085,-13.569,-5.910
0.715,-0.069,1.173,-0.603,-17.427,-4.620
0.716,-0.069,1.168,-1.018,-22.143,-3.146
0.716,-0.069,1.166,-1.333,-27.272,-1.567
0.716,-0.068,1.162,-1.570,-32.503,0.043
0.717,-0.068,1.157,-1.743,-37.935,1.552
0.717,-0.068,1.151,-1.892,-43.125,2.989
0.718,-0.068,1.144,-1.997,-48.077,4.356
0.719,-0.068,1.136,-2.034,-52.569,5.654
0.721,-0.068,1.126,-1.999,-56.565,6.909
0.722,-0.068,1.117,-1.900,-59.833,8.020
0.724,-0.068,1.108,-1.805,-62.317,8.963
0.725,-0.068,1.099,-1.719,-64.252,9.752
0.725,-0.068,1.089,-1.602,-65.881,10.386
0.725,-0.068,1.081,-1.502,-66.885,10.918
0.725,-0.068,1.072,-1.419,-67.454,11.352
0.726,-0.068,1.062,-1.145,-67.344,11.571
0.728,-0.070,1.054,-0.859,-66.513,11.707
0.731,-0.070,1.045,-0.673,-65.138,11.792
0.734,-0.069,1.037,-0.593,-63.442,11.821
0.737,-0.070,1.030,-0.697,-61.627,11.780
0.739,-0.070,1.022,-0.861,-59.831,11.673
0.739,-0.071,1.014,-1.035,-58.045,11.545
0.740,-0.072,1.006,-1.185,-56.179,11.449
0.741,-0.073,0.998,-1.340,-54.438,11.397
0.742,-0.074,0.992,-1.517,-52.720,11.353
0.742,-0.075,0.986,-1.731,-50.975,11.318
0.742,-0.076,0.979,-1.954,-49.188,11.270
0.741,-0.076,0.972,-2.188,-47.396,11.241
0.740,-0.077,0.966,-2.415,-45.571,11.234
0.739,-0.078,0.959,-2.622,-43.797,11.227
0.738,-0.079,0.953,-2.803,-42.034,11.218
0.736,-0.079,0.947,-2.956,-40.320,11.213
0.733,-0.080,0.941,-3.072,-38.662,11.215
0.731,-0.080,0.935,-3.147,-37.052,11.190
0.728,-0.080,0.929,-3.194,-35.522,11.159
0.725,-0.081,0.924,-3.222,-34.054,11.088
0.722,-0.081,0.918,-3.239,-32.648,11.006
0.718,-0.081,0.913,-3.239,-31.324,10.906
0.715,-0.082,0.908,-3.227,-30.094,10.781
0.712,-0.082,0.902,-3.223,-28.946,10.654
0.709,-0.082,0.897,-3.221,-27.812,10.505
0.706,-0.082,0.892,-3.240,-26.695,10.345
0.703,-0.082,0.888,-3.275,-25.607,10.183
0.700,-0.082,0.883,-3.310,-24.538,10.013
0.697,-0.083,0.878,-3.318,-23.487,9.845
0.694,-0.084,0.874,-3.292,-22.465,9.690
0.692,-0.085,0.870,-3.237,-21.476,9.536
0.689,-0.086,0.866,-3.173,-20.540,9.391
0.687,-0.087,0.863,-3.107,-19.661,9.253
0.685,-0.088,0.859,-3.047,-18.868,9.126
0.682,-0.088,0.856,-2.995,-18.140,9.002
0.680,-0.089,0.853,-2.945,-17.452,8.879
0.678,-0.090,0.850,-2.883,-16.786,8.764
0.675,-0.092,0.847,-2.794,-16.128,8.660
0.673,-0.093,0.844,-2.678,-15.461,8.566
0.671,-0.093,0.842,-2.552,-14.768,8.470
0.670,-0.094,0.839,-2.413,-14.049,8.374
0.668,-0.094,0.837,-2.283,-13.325,8.277
0.666,-0.095,0.835,-2.162,-12.611,8.179
0.664,-0.095,0.834,-2.048,-11.928,8.076
0.662,-0.095,0.832,-1.962,-11.288,7.963
0.660,-0.096,0.831,-1.914,-10.690,7.846
0.658,-0.096,0.830,-1.891,-10.138,7.725
0.656,-0.097,0.829,-1.883,-9.642,7.613
0.654,-0.097,0.827,-1.861,-9.168,7.507
0.652,-0.098,0.826,-1.813,-8.707,7.406
0.650,-0.098,0.824,-1.716,-8.246,7.330
0.648,-0.099,0.823,-1.580,-7.784,7.276
0.646,-0.099,0.822,-1.423,-7.316,7.243
0.644,-0.099,0.821,-1.244,-6.833,7.223
0.642,-0.099,0.820,-1.068,-6.339,7.222
0.640,-0.099,0.820,-0.912,-5.838,7.228
0.638,-0.099,0.820,-0.772,-5.338,7.231
0.637,-0.099,0.819,-0.631,-4.852,7.246
0.635,-0.099,0.819,-0.516,-4.385,7.265
0.634,-0.099,0.819,-0.424,-3.943,7.276
0.632,-0.099,0.819,-0.357,-3.518,7.286
0.630,-0.099,0.819,-0.292,-3.111,7.313
0.628,-0.099,0.819,-0.206,-2.707,7.350
0.627,-0.099,0.819,-0.103,-2.306,7.388
0.625,-0.099,0.819,0.033,-1.877,7.436
0.623,-0.099,0.818,0.211,-1.416,7.492
0.622,-0.099,0.818,0.411,-0.927,7.560
0.621,-0.099,0.819,0.614,-0.423,7.625
0.619,-0.099,0.819,0.781,0.079,7.686
0.618,-0.098,0.820,0.902,0.568,7.745
0.617,-0.098,0.821,0.985,1.049,7.800
0.616,-0.098,0.821,1.030,1.516,7.848
0.615,-0.098,0.822,1.058,1.969,7.900
0.613,-0.097,0.822,1.072,2.415,7.951
0.612,-0.098,0.823,1.077,2.848,8.011
0.611,-0.098,0.824,1.094,3.280,8.083
0.609,-0.098,0.825,1.162,3.700,8.137
0.608,-0.098,0.825,1.250,4.136,8.193
0.607,-0.098,0.826,1.326,4.599,8.275
0.606,-0.097,0.826,1.398,5.094,8.384
0.604,-0.097,0.827,1.467,5.616,8.507
0.603,-0.098,0.829,1.525,6.164,8.633
0.602,-0.098,0.830,1.565,6.724,8.764
0.601,-0.098,0.832,1.586,7.289,8.918
0.600,-0.099,0.834,1.573,7.847,9.084
0.599,-0.100,0.836,1.517,8.385,9.262
0.599,-0.101,0.838,1.419,8.916,9.489
0.598,-0.102,0.840,1.335,9.457,9.753
0.597,-0.104,0.841,1.285,10.011,10.059
0.596,-0.105,0.843,1.271,10.584,10.393
0.595,-0.106,0.844,1.283,11.202,10.778
0.594,-0.107,0.847,1.322,11.855,11.186
0.594,-0.108,0.849,1.360,12.542,11.594
0.593,-0.109,0.852,1.376,13.250,12.087

0.466,-0.167,1.293,2.098,6.379,6.705
0.479,-0.169,1.298,2.727,0.819,1.828
0.491,-0.169,1.302,3.137,-3.650,-2.620
0.503,-0.169,1.305,3.179,-7.274,-6.755
0.515,-0.168,1.306,2.972,-10.281,-10.652
0.524,-0.168,1.306,2.489,-12.588,-14.289
0.534,-0.168,1.305,1.814,-14.397,-17.575
0.544,-0.169,1.303,1.076,-15.996,-20.428
0.553,-0.171,1.301,0.495,-17.331,-22.835
0.561,-0.173,1.299,0.159,-18.456,-24.825
0.568,-0.173,1.296,0.034,-19.363,-26.470
0.574,-0.173,1.292,0.011,-20.100,-27.817
0.580,-0.171,1.287,0.027,-20.653,-28.731
0.586,-0.169,1.282,0.046,-21.044,-29.342
0.592,-0.166,1.276,0.083,-21.251,-29.749
0.599,-0.164,1.269,0.134,-21.326,-29.929
0.605,-0.163,1.261,0.205,-21.284,-29.952
0.610,-0.161,1.254,0.252,-21.134,-29.807
0.616,-0.159,1.247,0.251,-20.884,-29.601
0.620,-0.157,1.240,0.205,-20.568,-29.330
0.624,-0.156,1.232,0.164,-20.179,-29.000
0.628,-0.154,1.224,0.131,-19.744,-28.623
0.631,-0.152,1.215,0.115,-19.271,-28.182
0.634,-0.150,1.206,0.084,-18.781,-27.711
0.636,-0.148,1.197,0.024,-18.293,-27.214
0.637,-0.146,1.187,-0.035,-17.806,-26.695
0.638,-0.143,1.176,-0.077,-17.320,-26.161
0.639,-0.141,1.165,-0.037,-16.824,-25.608
0.640,-0.139,1.153,0.063,-16.311,-25.037
0.641,-0.136,1.142,0.195,-15.794,-24.455
0.642,-0.134,1.130,0.380,-15.270,-23.864
0.643,-0.132,1.119,0.615,-14.745,-23.236
0.643,-0.129,1.108,0.884,-14.234,-22.593
0.645,-0.127,1.097,1.145,-13.746,-21.945
0.645,-0.124,1.086,1.400,-13.307,-21.306
0.646,-0.122,1.076,1.645,-12.923,-20.666
0.646,-0.119,1.066,1.874,-12.591,-20.040
0.646,-0.117,1.056,2.081,-12.317,-19.435
0.647,-0.114,1.047,2.231,-12.105,-18.832
0.647,-0.112,1.037,2.343,-11.915,-18.240
0.647,-0.109,1.027,2.455,-11.709,-17.660
0.648,-0.106,1.017,2.583,-11.461,-17.094
0.649,-0.103,1.008,2.727,-11.165,-16.538
0.649,-0.101,0.999,2.865,-10.833,-15.999
0.650,-0.098,0.991,2.986,-10.487,-15.487
0.650,-0.096,0.984,3.091,-10.154,-15.009
0.651,-0.094,0.977,3.161,-9.850,-14.578
0.651,-0.091,0.972,3.155,-9.595,-14.192
0.650,-0.089,0.966,3.099,-9.403,-13.834
0.650,-0.087,0.960,3.001,-9.287,-13.503
0.650,-0.084,0.955,2.895,-9.225,-13.206
0.650,-0.082,0.949,2.779,-9.187,-12.927
0.650,-0.080,0.943,2.655,-9.152,-12.645
0.650,-0.079,0.938,2.552,-9.104,-12.362
0.650,-0.077,0.933,2.494,-9.018,-12.077
0.650,-0.076,0.929,2.495,-8.896,-11.792
0.650,-0.074,0.924,2.510,-8.733,-11.501
0.650,-0.073,0.921,2.501,-8.541,-11.196
0.651,-0.071,0.918,2.457,-8.340,-10.893
0.651,-0.070,0.915,2.387,-8.141,-10.602
0.651,-0.068,0.913,2.275,-7.955,-10.321
0.651,-0.067,0.911,2.102,-7.789,-10.048
0.651,-0.066,0.909,1.848,-7.641,-9.769
0.651,-0.064,0.907,1.566,-7.504,-9.487
0.651,-0.063,0.904,1.297,-7.357,-9.206
0.652,-0.063,0.902,1.077,-7.160,-8.922
0.652,-0.062,0.899,0.904,-6.922,-8.623
0.652,-0.061,0.896,0.772,-6.644,-8.300
0.653,-0.060,0.895,0.661,-6.335,-7.961
0.653,-0.059,0.893,0.542,-6.010,-7.610
0.653,-0.058,0.892,0.415,-5.678,-7.251
0.653,-0.058,0.891,0.256,-5.342,-6.889
0.653,-0.057,0.890,0.029,-5.008,-6.514
0.653,-0.056,0.889,-0.238,-4.674,-6.139
0.653,-0.056,0.888,-0.544,-4.347,-5.754
0.653,-0.055,0.887,-0.869,-4.024,-5.357
0.653,-0.055,0.886,-1.201,-3.711,-4.941
0.653,-0.056,0.884,-1.470,-3.381,-4.511
0.653,-0.056,0.881,-1.664,-3.009,-4.071
0.654,-0.056,0.879,-1.806,-2.575,-3.605
0.654,-0.055,0.878,-1.897,-2.120,-3.119
0.654,-0.055,0.877,-1.939,-1.660,-2.626
0.654,-0.055,0.877,-1.985,-1.220,-2.135
0.653,-0.055,0.877,-2.043,-0.800,-1.652
0.653,-0.055,0.877,-2.122,-0.392,-1.166
0.652,-0.055,0.877,-2.233,0.004,-0.678
0.652,-0.055,0.878,-2.369,0.381,-0.202
0.651,-0.055,0.879,-2.537,0.722,0.274
0.650,-0.055,0.878,-2.694,1.061,0.770
0.649,-0.056,0.878,-2.831,1.396,1.248
0.648,-0.056,0.875,-2.853,1.759,1.699
0.647,-0.056,0.872,-2.802,2.173,2.158
0.646,-0.055,0.870,-2.686,2.640,2.600
0.644,-0.055,0.869,-2.521,3.139,3.026
0.643,-0.055,0.869,-2.316,3.654,3.438
0.642,-0.055,0.869,-2.099,4.147,3.841
0.640,-0.056,0.870,-1.887,4.600,4.230
0.639,-0.056,0.870,-1.642,5.020,4.600
0.637,-0.057,0.871,-1.373,5.412,4.959
0.636,-0.058,0.871,-1.078,5.742,5.309
0.634,-0.058,0.871,-0.748,6.032,5.660
0.632,-0.059,0.870,-0.387,6.299,6.004
0.631,-0.060,0.870,0.024,6.554,6.341
0.629,-0.060,0.869,0.444,6.804,6.676
0.628,-0.060,0.869,0.898,7.069,7.001
0.626,-0.061,0.869,1.396,7.363,7.316
0.625,-0.061,0.870,1.940,7.690,7.633
0.623,-0.061,0.872,2.506,8.047,7.950
0.622,-0.061,0.873,3.051,8.439,8.263
0.620,-0.061,0.874,3.542,8.843,8.543
0.618,-0.061,0.875,4.030,9.237,8.735
0.617,-0.060,0.877,4.423,9.595,8.924
0.615,-0.060,0.879,4.712,9.932,9.102
0.614,-0.060,0.881,4.882,10.238,9.270
0.613,-0.060,0.883,4.978,10.553,9.418
0.612,-0.061,0.884,5.043,10.884,9.539
0.610,-0.061,0.885,5.109,11.256,9.643
0.609,-0.062,0.885,5.227,11.690,9.759
0.607,-0.062,0.886,5.378,12.176,9.878

0.398,-0.325,1.191,6.013,5.653,5.068
0.401,-0.323,1.193,6.662,0.170,0.286
0.404,-0.321,1.194,7.158,-4.443,-4.477
0.407,-0.319,1.194,7.501,-8.600,-8.955
0.409,-0.317,1.193,7.705,-12.414,-13.095
0.411,-0.315,1.192,7.768,-15.945,-16.997
0.414,-0.314,1.190,7.742,-19.196,-20.675
0.418,-0.312,1.188,7.628,-22.326,-24.001
0.422,-0.311,1.186,7.445,-25.278,-27.007
0.427,-0.309,1.185,7.236,-28.022,-29.688
0.432,-0.307,1.183,7.056,-30.500,-32.189
0.438,-0.306,1.179,6.973,-32.715,-34.442
0.445,-0.305,1.176,7.136,-34.597,-36.406
0.452,-0.303,1.172,7.438,-36.204,-38.138
0.459,-0.300,1.168,7.882,-37.565,-39.772
0.467,-0.296,1.164,8.385,-38.607,-41.183
0.474,-0.292,1.159,8.911,-39.477,-42.505
0.482,-0.288,1.154,9.361,-40.216,-43.701
0.490,-0.284,1.150,9.672,-40.812,-44.732
0.498,-0.281,1.146,9.880,-41.392,-45.651
0.505,-0.278,1.143,9.939,-42.020,-46.469
0.513,-0.274,1.141,9.860,-42.700,-47.098
0.522,-0.272,1.138,9.674,-43.355,-47.418
0.531,-0.269,1.133,9.488,-44.011,-47.572
0.539,-0.265,1.128,9.358,-44.593,-47.584
0.548,-0.262,1.123,9.324,-45.002,-47.446
0.556,-0.258,1.116,9.401,-45.193,-47.163
0.563,-0.253,1.109,9.676,-45.177,-46.753
0.571,-0.247,1.102,10.047,-45.003,-46.291
0.577,-0.241,1.095,10.463,-44.691,-45.763
0.584,-0.236,1.090,10.863,-44.211,-45.203
0.591,-0.231,1.085,11.197,-43.656,-44.598
0.597,-0.226,1.081,11.456,-43.046,-43.931
0.603,-0.222,1.076,11.574,-42.411,-43.237
0.609,-0.217,1.072,11.581,-41.767,-42.514
0.614,-0.212,1.067,11.491,-41.116,-41.767
0.619,-0.208,1.062,11.328,-40.469,-40.992
0.624,-0.203,1.058,11.115,-39.843,-40.179
0.629,-0.199,1.051,10.907,-39.220,-39.351
0.633,-0.194,1.043,10.738,-38.572,-38.505
0.638,-0.188,1.035,10.608,-37.820,-37.640
0.642,-0.183,1.027,10.516,-36.992,-36.756
0.646,-0.178,1.020,10.488,-36.118,-35.816
0.650,-0.173,1.014,10.493,-35.214,-34.852
0.653,-0.168,1.009,10.479,-34.293,-33.868
0.656,-0.163,1.003,10.408,-33.378,-32.865
0.658,-0.157,0.998,10.267,-32.471,-31.866
0.661,-0.152,0.992,10.037,-31.583,-30.866
0.663,-0.147,0.987,9.760,-30.721,-29.879
0.665,-0.143,0.982,9.467,-29.885,-28.903
0.667,-0.138,0.975,9.187,-29.081,-27.935
0.668,-0.134,0.968,8.935,-28.304,-27.008
0.670,-0.129,0.961,8.712,-27.540,-26.113
0.671,-0.124,0.953,8.495,-26.777,-25.230
0.673,-0.120,0.945,8.307,-25.996,-24.374
0.674,-0.116,0.939,8.168,-25.213,-23.555
0.675,-0.112,0.933,8.074,-24.441,-22.752
0.676,-0.108,0.928,7.995,-23.690,-21.974
0.677,-0.104,0.923,7.887,-22.964,-21.238
0.677,-0.101,0.918,7.727,-22.278,-20.543
0.678,-0.097,0.914,7.520,-21.629,-19.877
0.678,-0.094,0.910,7.277,-21.024,-19.244
0.679,-0.091,0.905,7.016,-20.466,-18.645
0.679,-0.088,0.900,6.760,-19.943,-18.079
0.680,-0.085,0.894,6.523,-19.432,-17.547
0.680,-0.083,0.889,6.323,-18.916,-17.041
0.681,-0.080,0.883,6.154,-18.385,-16.531
0.682,-0.077,0.879,6.018,-17.840,-16.032
0.682,-0.074,0.874,5.915,-17.292,-15.567
0.682,-0.072,0.871,5.822,-16.743,-15.128
0.683,-0.069,0.867,5.712,-16.207,-14.698
0.683,-0.068,0.865,5.546,-15.692,-14.287
0.683,-0.066,0.862,5.328,-15.205,-13.900
0.683,-0.064,0.859,5.067,-14.751,-13.527
0.684,-0.062,0.856,4.785,-14.328,-13.166
0.684,-0.061,0.854,4.478,-13.930,-12.809
0.684,-0.059,0.851,4.171,-13.559,-12.463
0.684,-0.058,0.848,3.897,-13.208,-12.139
0.684,-0.057,0.844,3.714,-12.840,-11.837
0.685,-0.056,0.841,3.615,-12.448,-11.544
0.685,-0.055,0.838,3.556,-12.023,-11.243
0.685,-0.054,0.836,3.463,-11.572,-10.924
0.686,-0.053,0.835,3.332,-11.078,-10.594
0.686,-0.051,0.834,3.140,-10.586,-10.252
0.686,-0.050,0.833,2.877,-10.100,-9.899
0.687,-0.050,0.833,2.500,-9.620,-9.528
0.687,-0.049,0.833,2.056,-9.148,-9.128
0.689,-0.049,0.833,1.578,-8.691,-8.703
0.690,-0.049,0.833,1.108,-8.242,-8.254
0.691,-0.050,0.832,0.696,-7.791,-7.752
0.692,-0.050,0.832,0.379,-7.339,-7.225
0.693,-0.050,0.831,0.163,-6.853,-6.663
0.694,-0.050,0.831,0.048,-6.297,-6.073
0.695,-0.050,0.832,-0.002,-5.694,-5.445
0.695,-0.050,0.833,-0.051,-5.049,-4.754
0.696,-0.049,0.835,-0.165,-4.359,-4.031
0.697,-0.048,0.838,-0.371,-3.603,-3.269
0.698,-0.048,0.841,-0.698,-2.796,-2.464
0.700,-0.048,0.845,-1.165,-1.922,-1.586
0.702,-0.047,0.848,-1.688,-0.980,-0.682
0.704,-0.047,0.852,-2.244,0.028,0.245
0.706,-0.047,0.856,-2.805,1.029,1.205
0.708,-0.048,0.860,-3.380,2.026,2.195
0.711,-0.048,0.863,-3.982,3.005,3.246
0.714,-0.048,0.867,-4.632,3.936,4.326
0.716,-0.048,0.869,-5.290,4.862,5.465
0.719,-0.048,0.870,-5.915,5.842,6.686
0.722,-0.048,0.873,-6.538,6.859,7.940
0.724,-0.048,0.876,-7.238,7.941,9.197
0.727,-0.048,0.881,-8.141,9.151,10.563
0.731,-0.049,0.886,-9.294,10.484,12.133
0.734,-0.049,0.892,-10.729,11.971,13.873
0.738,-0.049,0.898,-12.451,13.584,15.712
0.741,-0.049,0.904,-14.468,15.325,17.585
0.743,-0.049,0.910,-16.712,17.134,19.487
0.745,-0.050,0.915,-19.191,18.962,21.468
0.747,-0.053,0.920,-21.710,20.721,23.514
0.748,-0.056,0.924,-24.183,22.404,25.593
0.748,-0.061,0.926,-26.391,24.165,27.663

0.325,-0.316,1.262,-25.692,21.020,25.041
0.329,-0.314,1.259,-24.991,18.195,22.611
0.333,-0.312,1.256,-24.303,15.639,20.336
0.337,-0.310,1.253,-23.627,13.351,18.207
0.341,-0.307,1.249,-22.923,11.308,16.230
0.344,-0.306,1.245,-22.219,9.437,14.381
0.348,-0.305,1.241,-21.535,7.788,12.693
0.353,-0.304,1.236,-20.905,6.283,11.154
0.357,-0.303,1.232,-20.317,4.882,9.784
0.361,-0.303,1.227,-19.753,3.544,8.627
0.366,-0.303,1.222,-19.189,2.296,7.589
0.370,-0.303,1.217,-18.587,1.123,6.674
0.374,-0.302,1.213,-17.995,0.022,5.900
0.378,-0.301,1.208,-17.431,-0.995,5.244
0.381,-0.300,1.202,-16.879,-1.925,4.688
0.385,-0.299,1.197,-16.337,-2.741,4.222
0.389,-0.297,1.193,-15.836,-3.442,3.820
0.393,-0.296,1.189,-15.389,-4.013,3.486
0.397,-0.294,1.185,-14.976,-4.484,3.215
0.401,-0.293,1.181,-14.576,-4.861,2.990
0.404,-0.293,1.176,-14.183,-5.143,2.798
0.408,-0.292,1.172,-13.783,-5.302,2.660
0.412,-0.292,1.168,-13.372,-5.375,2.575
0.416,-0.292,1.163,-12.925,-5.381,2.534
0.419,-0.291,1.159,-12.493,-5.338,2.528
0.422,-0.289,1.155,-12.099,-5.240,2.543
0.425,-0.287,1.150,-11.755,-5.115,2.579
0.427,-0.285,1.145,-11.439,-4.964,2.631
0.429,-0.282,1.140,-11.137,-4.785,2.686
0.430,-0.280,1.134,-10.853,-4.588,2.734
0.431,-0.278,1.129,-10.592,-4.375,2.774
0.432,-0.277,1.124,-10.340,-4.164,2.810
0.432,-0.275,1.119,-10.102,-3.954,2.834
0.433,-0.274,1.114,-9.840,-3.735,2.860
0.433,-0.273,1.108,-9.541,-3.490,2.885
0.433,-0.271,1.103,-9.217,-3.240,2.910
0.433,-0.269,1.097,-8.906,-2.998,2.934
0.433,-0.268,1.092,-8.639,-2.773,2.947
0.433,-0.266,1.087,-8.407,-2.564,2.953
0.432,-0.264,1.081,-8.202,-2.364,2.945
0.432,-0.263,1.076,-8.022,-2.169,2.922
0.431,-0.261,1.070,-7.860,-1.981,2.891
0.431,-0.260,1.065,-7.698,-1.800,2.855
0.431,-0.259,1.059,-7.521,-1.628,2.811
0.430,-0.258,1.053,-7.330,-1.460,2.753
0.430,-0.257,1.047,-7.112,-1.296,2.692
0.429,-0.257,1.042,-6.875,-1.131,2.618
0.429,-0.256,1.037,-6.649,-0.976,2.533
0.428,-0.255,1.032,-6.451,-0.840,2.442
0.428,-0.254,1.027,-6.288,-0.723,2.343
0.427,-0.253,1.022,-6.157,-0.628,2.230
0.426,-0.253,1.017,-6.051,-0.563,2.108
0.425,-0.252,1.013,-5.995,-0.514,1.986
0.425,-0.251,1.009,-5.978,-0.478,1.866
0.425,-0.251,1.005,-5.933,-0.440,1.739
0.425,-0.251,1.001,-5.827,-0.397,1.618
0.424,-0.251,0.998,-5.664,-0.349,1.501
0.424,-0.251,0.994,-5.482,-0.300,1.389
0.424,-0.251,0.990,-5.305,-0.254,1.274
0.424,-0.251,0.987,-5.158,-0.216,1.171
0.423,-0.250,0.983,-5.028,-0.172,1.069
0.423,-0.250,0.980,-4.904,-0.129,0.973
0.423,-0.249,0.977,-4.795,-0.093,0.880
0.422,-0.249,0.975,-4.699,-0.074,0.791
0.422,-0.248,0.973,-4.629,-0.066,0.704
0.421,-0.248,0.971,-4.558,-0.072,0.627
0.421,-0.247,0.969,-4.465,-0.087,0.556
0.420,-0.247,0.967,-4.345,-0.112,0.490
0.420,-0.247,0.965,-4.204,-0.151,0.432
0.420,-0.247,0.963,-4.051,-0.199,0.383
0.420,-0.246,0.960,-3.900,-0.248,0.343
0.419,-0.246,0.959,-3.762,-0.306,0.312
0.419,-0.245,0.957,-3.629,-0.374,0.284
0.419,-0.244,0.955,-3.500,-0.436,0.249
0.419,-0.243,0.953,-3.370,-0.482,0.214
0.419,-0.242,0.951,-3.256,-0.509,0.187
0.418,-0.242,0.950,-3.150,-0.522,0.162
0.418,-0.241,0.949,-3.047,-0.529,0.130
0.418,-0.241,0.949,-2.934,-0.532,0.095
0.418,-0.240,0.948,-2.811,-0.538,0.054
0.418,-0.240,0.948,-2.706,-0.560,0.008
0.418,-0.240,0.947,-2.621,-0.591,-0.035
0.417,-0.239,0.946,-2.555,-0.623,-0.070
0.417,-0.238,0.945,-2.484,-0.657,-0.106
0.417,-0.238,0.944,-2.418,-0.709,-0.145
0.416,-0.237,0.943,-2.385,-0.775,-0.179
0.416,-0.237,0.942,-2.370,-0.822,-0.207
0.416,-0.236,0.940,-2.346,-0.846,-0.232
0.416,-0.236,0.939,-2.288,-0.846,-0.257
0.416,-0.235,0.939,-2.221,-0.834,-0.281
0.416,-0.235,0.939,-2.146,-0.815,-0.301
0.416,-0.235,0.939,-2.060,-0.799,-0.313
0.416,-0.234,0.939,-1.985,-0.781,-0.316
0.416,-0.234,0.938,-1.917,-0.765,-0.319
0.416,-0.233,0.938,-1.867,-0.754,-0.314
0.415,-0.233,0.937,-1.822,-0.747,-0.311
0.415,-0.233,0.936,-1.794,-0.745,-0.307
0.415,-0.233,0.935,-1.761,-0.737,-0.295
0.415,-0.233,0.934,-1.701,-0.713,-0.273
0.415,-0.232,0.933,-1.627,-0.680,-0.251
0.415,-0.232,0.933,-1.533,-0.640,-0.231
0.415,-0.232,0.933,-1.433,-0.589,-0.207
0.415,-0.232,0.932,-1.318,-0.530,-0.183
0.415,-0.232,0.932,-1.189,-0.462,-0.161
0.415,-0.232,0.932,-1.063,-0.387,-0.140
0.415,-0.231,0.932,-0.968,-0.314,-0.122
0.415,-0.231,0.932,-0.910,-0.245,-0.104
0.414,-0.230,0.931,-0.879,-0.181,-0.088
0.414,-0.230,0.931,-0.880,-0.125,-0.080
0.414,-0.229,0.931,-0.936,-0.088,-0.077
0.414,-0.229,0.930,-0.986,-0.053,-0.071
0.414,-0.229,0.929,-1.012,0.007,-0.063
0.414,-0.229,0.928,-1.000,0.089,-0.049
0.414,-0.229,0.927,-0.925,0.187,-0.027
0.414,-0.229,0.927,-0.814,0.297,0.007
0.414,-0.229,0.928,-0.676,0.408,0.044
0.413,-0.229,0.928,-0.551,0.509,0.084
0.413,-0.229,0.928,-0.443,0.603,0.121
0.413,-0.228,0.929,-0.400,0.689,0.162

0.263,-0.384,1.306,-0.553,-4.199,-4.556
0.271,-0.390,1.326,-1.474,-8.030,-8.632
0.280,-0.396,1.341,-2.692,-10.814,-12.530
0.289,-0.404,1.354,-3.940,-12.894,-15.983
0.297,-0.413,1.363,-4.764,-14.341,-18.797
0.306,-0.422,1.370,-5.128,-15.266,-20.985
0.314,-0.430,1.375,-5.122,-15.692,-22.708
0.320,-0.436,1.379,-4.904,-15.857,-24.073
0.327,-0.439,1.382,-4.581,-15.838,-25.104
0.332,-0.441,1.383,-4.281,-15.712,-25.940
0.337,-0.442,1.382,-4.040,-15.479,-26.607
0.342,-0.443,1.381,-3.942,-15.148,-27.022
0.347,-0.444,1.380,-3.970,-14.783,-27.252
0.352,-0.444,1.378,-4.132,-14.423,-27.351
0.356,-0.444,1.375,-4.448,-14.080,-27.319
0.361,-0.443,1.371,-4.972,-13.766,-27.119
0.365,-0.442,1.365,-5.549,-13.474,-26.838
0.369,-0.440,1.357,-6.100,-13.186,-26.489
0.373,-0.438,1.348,-6.543,-12.878,-26.019
0.376,-0.436,1.338,-6.850,-12.524,-25.480
0.380,-0.434,1.327,-6.974,-12.100,-24.902
0.382,-0.432,1.317,-6.916,-11.620,-24.234
0.385,-0.429,1.307,-6.699,-11.092,-23.455
0.386,-0.427,1.298,-6.425,-10.550,-22.651
0.387,-0.423,1.289,-6.170,-10.014,-21.839
0.387,-0.420,1.280,-5.962,-9.513,-21.016
0.387,-0.416,1.271,-5.806,-9.063,-20.219
0.387,-0.411,1.262,-5.700,-8.682,-19.474
0.386,-0.407,1.254,-5.676,-8.388,-18.787
0.385,-0.403,1.244,-5.700,-8.128,-18.159
0.384,-0.399,1.233,-5.689,-7.883,-17.580
0.383,-0.396,1.222,-5.624,-7.635,-17.042
0.383,-0.393,1.212,-5.523,-7.391,-16.542
0.382,-0.389,1.202,-5.418,-7.155,-16.069
0.381,-0.386,1.193,-5.320,-6.928,-15.604
0.381,-0.383,1.184,-5.220,-6.714,-15.159
0.381,-0.381,1.175,-5.096,-6.511,-14.734
0.380,-0.379,1.166,-4.960,-6.314,-14.309
0.380,-0.377,1.157,-4.843,-6.125,-13.890
0.380,-0.375,1.150,-4.760,-5.967,-13.477
0.380,-0.374,1.142,-4.696,-5.837,-13.075
0.380,-0.373,1.135,-4.614,-5.735,-12.673
0.380,-0.372,1.127,-4.487,-5.645,-12.282
0.380,-0.371,1.119,-4.312,-5.560,-11.899
0.379,-0.370,1.111,-4.104,-5.479,-11.525
0.379,-0.369,1.104,-3.884,-5.398,-11.152
0.379,-0.368,1.097,-3.640,-5.314,-10.782
0.378,-0.366,1.090,-3.370,-5.235,-10.422
0.378,-0.365,1.084,-3.094,-5.164,-10.068
0.377,-0.364,1.078,-2.824,-5.115,-9.728
0.376,-0.363,1.072,-2.565,-5.087,-9.408
0.376,-0.362,1.066,-2.339,-5.092,-9.103
0.375,-0.361,1.061,-2.145,-5.117,-8.807
0.375,-0.360,1.055,-1.984,-5.155,-8.518
0.374,-0.359,1.049,-1.807,-5.196,-8.245
0.374,-0.359,1.044,-1.594,-5.222,-7.989
0.374,-0.358,1.039,-1.375,-5.245,-7.737
0.373,-0.356,1.034,-1.191,-5.269,-7.494
0.373,-0.355,1.028,-1.021,-5.285,-7.276
0.373,-0.354,1.024,-0.866,-5.296,-7.070
0.373,-0.353,1.019,-0.723,-5.300,-6.873
0.372,-0.352,1.016,-0.630,-5.309,-6.694
0.372,-0.351,1.012,-0.589,-5.323,-6.521
0.372,-0.350,1.009,-0.575,-5.341,-6.351
0.373,-0.349,1.006,-0.578,-5.363,-6.183
0.373,-0.348,1.003,-0.593,-5.388,-6.024
0.373,-0.348,1.000,-0.592,-5.414,-5.873
0.373,-0.347,0.996,-0.600,-5.456,-5.716
0.373,-0.347,0.992,-0.547,-5.476,-5.571
0.373,-0.346,0.987,-0.426,-5.464,-5.440
0.373,-0.346,0.984,-0.277,-5.424,-5.308
0.373,-0.344,0.982,-0.140,-5.380,-5.176
0.373,-0.343,0.980,-0.035,-5.343,-5.055
0.373,-0.342,0.978,0.031,-5.321,-4.949
0.374,-0.341,0.977,0.055,-5.321,-4.860
0.374,-0.340,0.975,0.030,-5.319,-4.778
0.374,-0.339,0.973,-0.027,-5.317,-4.702
0.374,-0.338,0.971,-0.096,-5.309,-4.631
0.375,-0.338,0.969,-0.132,-5.297,-4.564
0.375,-0.337,0.967,0.414,-5.292,-4.484
0.375,-0.337,0.966,0.416,-5.303,-4.396
0.376,-0.336,0.963,0.434,-5.305,-4.304
0.376,-0.335,0.960,0.483,-5.282,-4.205
0.377,-0.335,0.957,0.558,-5.242,-4.100
0.377,-0.334,0.955,0.661,-5.182,-4.000
0.377,-0.333,0.953,0.779,-5.105,-3.904
0.378,-0.332,0.951,0.895,-5.008,-3.801
0.378,-0.331,0.950,1.003,-4.908,-3.709
0.378,-0.330,0.949,1.081,-4.816,-3.634
0.378,-0.329,0.949,1.098,-4.741,-3.587
0.378,-0.328,0.948,1.081,-4.680,-3.558
0.378,-0.327,0.947,1.047,-4.626,-3.535
0.378,-0.327,0.946,1.007,-4.576,-3.509
0.379,-0.326,0.945,0.956,-4.529,-3.478
0.379,-0.326,0.944,0.898,-4.488,-3.444
0.379,-0.325,0.942,0.814,-4.473,-3.415
0.379,-0.325,0.941,0.711,-4.475,-3.383
0.379,-0.324,0.938,0.618,-4.473,-3.358
0.380,-0.324,0.935,0.595,-4.444,-3.329
0.380,-0.325,0.933,0.669,-4.367,-3.283
0.380,-0.325,0.931,0.827,-4.270,-3.225
0.381,-0.324,0.930,1.025,-4.168,-3.170
0.381,-0.324,0.929,1.210,-4.074,-3.113
0.381,-0.323,0.929,1.355,-4.004,-3.059
0.381,-0.322,0.928,1.446,-3.957,-3.012
0.381,-0.322,0.928,1.453,-3.942,-2.978
0.381,-0.321,0.926,1.410,-3.960,-2.948
0.381,-0.321,0.925,1.330,-3.984,-2.935
0.381,-0.320,0.924,1.230,-4.004,-2.916
0.381,-0.320,0.923,1.142,-4.015,-2.887
0.382,-0.320,0.921,1.091,-4.011,-2.860
0.382,-0.320,0.920,1.083,-3.995,-2.833
0.383,-0.320,0.919,1.088,-3.966,-2.796
0.383,-0.319,0.918,1.096,-3.930,-2.752
0.383,-0.319,0.917,1.105,-3.895,-2.702
0.384,-0.319,0.916,1.095,-3.853,-2.648
0.384,-0.319,0.916,1.044,-3.811,-2.599
0.385,-0.318,0.916,0.966,-3.777,-2.551
0.385,-0.318,0.916,0.874,-3.762,-2.510

0.277,-1.029,-0.607,0.699,-0.599,-4.889
0.282,-1.030,-0.607,0.742,2.398,-7.004
0.288,-1.030,-0.606,0.953,5.395,-8.874
0.294,-1.029,-0.604,1.288,8.360,-10.503
0.300,-1.027,-0.602,1.537,11.188,-11.914
0.306,-1.024,-0.601,1.607,14.023,-13.234
0.312,-1.021,-0.601,1.507,16.503,-14.288
0.317,-1.017,-0.600,1.280,18.394,-15.248
0.323,-1.013,-0.600,0.951,20.035,-16.264
0.329,-1.010,-0.600,0.504,21.774,-17.325
0.337,-1.007,-0.600,0.135,23.479,-18.311
0.346,-1.006,-0.599,-0.085,24.805,-19.127
0.353,-1.005,-0.598,-0.139,25.785,-19.782
0.361,-1.004,-0.596,-0.023,26.457,-20.196
0.368,-1.003,-0.594,0.185,26.913,-20.475
0.376,-1.002,-0.591,0.503,27.140,-20.599
0.382,-1.000,-0.587,0.897,27.278,-20.656
0.389,-0.997,-0.584,1.208,27.386,-20.630
0.395,-0.992,-0.580,1.374,27.425,-20.576
0.400,-0.987,-0.576,1.385,27.398,-20.546
0.405,-0.982,-0.573,1.279,27.288,-20.519
0.410,-0.977,-0.569,1.113,27.070,-20.483
0.415,-0.973,-0.565,0.957,26.770,-20.420
0.419,-0.969,-0.561,0.844,26.394,-20.345
0.424,-0.966,-0.557,0.806,25.971,-20.230
0.429,-0.963,-0.554,0.884,25.508,-20.030
0.434,-0.961,-0.550,1.022,24.991,-19.741
0.438,-0.958,-0.546,1.186,24.424,-19.423
0.442,-0.954,-0.542,1.326,23.821,-19.112
0.446,-0.950,-0.538,1.370,23.213,-18.796
0.450,-0.946,-0.534,1.363,22.633,-18.472
0.453,-0.941,-0.530,1.317,22.098,-18.135
0.456,-0.936,-0.526,1.245,21.581,-17.786
0.459,-0.931,-0.521,1.136,21.070,-17.437
0.461,-0.926,-0.517,1.018,20.551,-17.086
0.463,-0.922,-0.512,0.910,20.000,-16.728
0.466,-0.917,-0.508,0.820,19.431,-16.340
0.468,-0.913,-0.504,0.752,18.866,-15.920
0.470,-0.909,-0.501,0.715,18.314,-15.505
0.472,-0.906,-0.498,0.695,17.784,-15.082
0.474,-0.902,-0.495,0.680,17.283,-14.658
0.477,-0.897,-0.492,0.650,16.802,-14.244
0.479,-0.893,-0.489,0.580,16.335,-13.832
0.481,-0.889,-0.486,0.491,15.875,-13.420
0.483,-0.885,-0.483,0.397,15.421,-13.005
0.485,-0.880,-0.480,0.327,14.976,-12.602
0.487,-0.874,-0.476,0.252,14.542,-12.224
0.488,-0.869,-0.473,0.151,14.116,-11.873
0.490,-0.864,-0.470,0.022,13.710,-11.544
0.492,-0.860,-0.467,-0.102,13.315,-11.231
0.493,-0.856,-0.464,-0.222,12.940,-10.928
0.495,-0.853,-0.461,-0.352,13.081,-10.651
0.496,-0.849,-0.459,-0.494,12.741,-10.401
0.498,-0.846,-0.457,-0.631,12.423,-10.158
0.499,-0.843,-0.455,-0.733,12.130,-9.928
0.500,-0.840,-0.453,-0.796,11.859,-9.717
0.501,-0.836,-0.450,-0.825,11.624,-9.522
0.502,-0.833,-0.448,-0.842,11.408,-9.339
0.503,-0.829,-0.445,-0.862,11.191,-9.167
0.504,-0.825,-0.442,-0.882,10.968,-9.007
0.504,-0.821,-0.439,-0.903,10.746,-8.861
0.505,-0.818,-0.436,-0.922,10.524,-8.720
0.505,-0.815,-0.434,-0.944,10.310,-8.589
0.506,-0.812,-0.432,-0.971,10.102,-8.477
0.507,-0.810,-0.430,-1.001,9.905,-8.371
0.507,-0.807,-0.428,-1.027,9.739,-8.275
0.508,-0.805,-0.426,-1.053,9.629,-8.179
0.509,-0.803,-0.424,-1.076,9.543,-8.092
0.509,-0.801,-0.422,-1.093,9.452,-8.036
0.509,-0.798,-0.420,-1.128,9.356,-7.992
0.510,-0.795,-0.418,-1.179,9.289,-7.935
0.511,-0.793,-0.416,-1.228,9.260,-7.867
0.512,-0.791,-0.415,-1.255,9.242,-7.816
0.512,-0.788,-0.413,-1.268,9.220,-7.785
0.513,-0.786,-0.412,-1.300,9.153,-7.781
0.513,-0.784,-0.411,-1.330,9.053,-7.831
0.514,-0.782,-0.411,-1.368,8.964,-7.907
0.516,-0.782,-0.411,-1.393,8.950,-7.955
0.518,-0.781,-0.412,-1.382,8.970,-8.021
0.520,-0.780,-0.412,-1.334,9.013,-8.124
0.521,-0.779,-0.411,-1.280,9.103,-8.157
0.523,-0.778,-0.411,-1.196,9.159,-8.184
0.524,-0.777,-0.410,-1.104,9.190,-8.238
0.525,-0.775,-0.409,-1.037,9.210,-8.313
0.527,-0.773,-0.408,-0.990,9.238,-8.379
0.529,-0.771,-0.407,-0.954,9.234,-8.432
0.530,-0.770,-0.406,-0.925,9.188,-8.468
0.531,-0.769,-0.405,-0.910,9.092,-8.520
0.533,-0.767,-0.404,-0.914,8.992,-8.549
0.535,-0.767,-0.403,-0.914,8.903,-8.547
0.537,-0.766,-0.403,-0.897,8.820,-8.521
0.539,-0.766,-0.402,-0.867,8.726,-8.506
0.541,-0.766,-0.402,-0.841,8.623,-8.488
0.543,-0.765,-0.401,-0.826,8.525,-8.449
0.544,-0.765,-0.401,-0.792,8.408,-8.414
0.546,-0.765,-0.400,-0.750,8.273,-8.373
0.547,-0.764,-0.399,-0.715,8.112,-8.340
0.549,-0.763,-0.399,-0.698,7.933,-8.295
0.551,-0.763,-0.398,-0.694,7.758,-8.213
0.552,-0.763,-0.397,-0.691,7.562,-8.099
0.553,-0.763,-0.396,-0.673,7.319,-8.008
0.555,-0.762,-0.396,-0.648,7.083,-7.917
0.557,-0.762,-0.395,-0.624,6.840,-7.793
0.559,-0.762,-0.395,-0.610,6.593,-7.654
0.560,-0.762,-0.394,-0.605,6.344,-7.521
0.562,-0.762,-0.394,-0.597,6.091,-7.382
0.564,-0.762,-0.393,-0.601,5.832,-7.224
0.565,-0.762,-0.392,-0.620,5.553,-7.051
0.566,-0.761,-0.391,-0.654,5.270,-6.261
0.568,-0.761,-0.391,-0.694,4.973,-6.080
0.568,-0.761,-0.390,-0.717,4.665,-5.886
0.569,-0.761,-0.389,-0.725,4.336,-5.674
0.570,-0.760,-0.388,-0.738,3.999,-5.437
0.571,-0.760,-0.387,-0.739,3.671,-5.202
0.572,-0.759,-0.386,-0.739,3.367,-4.974
0.572,-0.759,-0.386,-0.744,3.085,-4.764
0.573,-0.759,-0.386,-0.763,2.814,-4.569
0.574,-0.758,-0.385,-0.791,2.548,-4.374
0.575,-0.758,-0.385,-0.837,2.285,-4.179

0.261,-0.887,-0.759,-0.896,2.267,-4.297
0.264,-0.888,-0.757,-0.855,2.246,-4.279
0.265,-0.890,-0.753,-0.669,2.120,-4.207
0.267,-0.890,-0.749,-0.364,1.931,-4.107
0.268,-0.890,-0.744,-0.086,1.749,-3.972
0.270,-0.889,-0.739,0.109,1.592,-3.858
0.272,-0.888,-0.736,0.224,1.558,-3.847
0.274,-0.886,-0.733,0.231,1.615,-3.818
0.275,-0.886,-0.732,0.238,1.817,-3.816
0.277,-0.887,-0.732,0.252,2.202,-3.800
0.278,-0.886,-0.732,0.299,2.463,-3.767
0.279,-0.884,-0.732,0.333,2.598,-3.698
0.279,-0.882,-0.731,0.371,2.739,-3.662
0.279,-0.879,-0.729,0.432,2.955,-3.692
0.280,-0.876,-0.725,0.565,3.193,-3.757
0.281,-0.873,-0.722,0.799,3.411,-3.832
0.281,-0.870,-0.717,1.093,3.509,-3.577
0.282,-0.868,-0.714,1.537,3.459,-3.410
0.282,-0.864,-0.710,1.963,3.399,-3.314
0.285,-0.861,-0.706,2.355,3.390,-3.252
0.286,-0.859,-0.703,2.723,3.353,-3.310
0.287,-0.857,-0.700,3.034,3.272,-3.379
0.288,-0.855,-0.698,3.269,3.184,-3.529
0.289,-0.853,-0.696,3.421,3.117,-3.616
0.291,-0.851,-0.694,3.539,3.035,-3.666
0.292,-0.848,-0.692,3.690,2.969,-3.700
0.293,-0.846,-0.690,3.921,2.954,-3.841
0.293,-0.844,-0.688,4.204,3.087,-4.069
0.297,-0.843,-0.686,4.517,3.132,-4.241
0.296,-0.841,-0.683,4.839,3.127,-4.452
0.297,-0.838,-0.680,5.151,3.189,-4.694
0.298,-0.834,-0.677,5.396,3.223,-4.933
0.299,-0.831,-0.673,5.591,3.261,-5.222
0.300,-0.828,-0.670,5.707,3.319,-5.513
0.301,-0.825,-0.667,5.748,3.371,-5.774
0.301,-0.822,-0.664,5.738,3.358,-5.911
0.300,-0.821,-0.662,5.746,3.321,-6.044
0.301,-0.820,-0.659,5.813,3.358,-6.225
0.301,-0.818,-0.656,5.940,3.340,-6.333
0.300,-0.816,-0.653,6.152,3.301,-6.429
0.301,-0.814,-0.650,6.369,3.324,-6.416
0.302,-0.812,-0.647,6.597,3.356,-6.400
0.302,-0.810,-0.643,6.775,3.323,-6.320
0.301,-0.807,-0.641,6.862,3.243,-6.119
0.301,-0.805,-0.639,6.830,3.267,-5.936
0.302,-0.803,-0.636,6.666,3.264,-5.696
0.301,-0.802,-0.633,6.386,3.223,-5.439
0.301,-0.801,-0.631,6.046,3.219,-4.942
0.301,-0.802,-0.630,5.694,3.271,-4.285
0.301,-0.804,-0.628,5.496,3.273,-3.779
0.302,-0.805,-0.626,5.465,3.119,-3.195
0.302,-0.806,-0.625,5.608,2.981,-2.488
0.302,-0.806,-0.623,5.845,2.987,-1.777
0.302,-0.806,-0.621,6.164,2.830,-1.125
0.300,-0.806,-0.619,6.601,2.604,-0.440
0.300,-0.807,-0.617,7.126,2.557,0.085
0.299,-0.807,-0.614,7.583,2.370,0.919
0.297,-0.807,-0.612,8.071,2.224,1.828
0.296,-0.807,-0.609,8.451,1.960,2.955
0.296,-0.808,-0.608,8.888,1.857,2.886
0.297,-0.808,-0.605,9.154,1.669,4.437
0.296,-0.811,-0.602,9.586,1.399,6.145
0.295,-0.812,-0.599,10.129,1.143,7.573
0.293,-0.813,-0.596,10.724,0.670,9.047
0.293,-0.815,-0.594,11.407,0.246,10.390
0.292,-0.816,-0.592,12.109,0.005,11.166
0.291,-0.818,-0.588,12.878,-0.336,12.076
0.291,-0.820,-0.583,13.734,-0.755,13.648
0.288,-0.823,-0.580,14.461,-1.081,15.350
0.285,-0.826,-0.576,15.325,-1.368,16.537
0.281,-0.826,-0.572,16.092,-1.779,17.751
0.278,-0.828,-0.568,16.905,-2.274,19.106
0.277,-0.830,-0.566,17.759,-2.547,20.312
0.275,-0.832,-0.562,18.511,-2.878,21.503
0.272,-0.834,-0.560,19.176,-3.281,23.125
0.270,-0.837,-0.559,19.897,-3.556,24.637
0.268,-0.840,-0.558,20.555,-3.767,25.754
0.264,-0.842,-0.557,21.058,-4.013,26.575
0.261,-0.844,-0.554,21.363,-4.425,27.979
0.259,-0.848,-0.553,21.710,-4.731,29.308
0.256,-0.851,-0.552,22.030,-4.996,30.452
0.252,-0.853,-0.549,22.271,-5.399,31.471
0.249,-0.856,-0.547,22.414,-5.719,32.316
0.245,-0.858,-0.544,22.423,-6.030,32.939
0.242,-0.860,-0.541,22.365,-6.369,33.588
0.239,-0.863,-0.538,22.303,-6.696,34.340
0.236,-0.867,-0.536,22.233,-6.968,35.024
0.232,-0.870,-0.534,22.167,-7.280,35.586
0.228,-0.873,-0.533,22.113,-7.560,35.999
0.225,-0.875,-0.532,21.982,-7.819,36.358
0.222,-0.878,-0.531,21.790,-8.018,36.516
0.218,-0.881,-0.531,21.519,-8.127,36.557
0.215,-0.884,-0.531,21.185,-8.188,36.528
0.213,-0.887,-0.531,20.783,-8.176,36.399
0.210,-0.889,-0.529,20.276,-8.142,36.188
0.207,-0.891,-0.528,19.681,-8.073,35.932
0.204,-0.893,-0.526,18.993,-7.957,35.610
0.200,-0.895,-0.525,18.233,-7.804,35.221
0.196,-0.897,-0.523,17.430,-7.618,34.735
0.192,-0.899,-0.522,16.616,-7.414,34.187
0.188,-0.901,-0.520,15.778,-7.181,33.579
0.184,-0.903,-0.520,14.920,-6.920,32.908
0.181,-0.905,-0.520,13.996,-6.621,32.148
0.177,-0.907,-0.520,13.033,-6.268,31.335
0.174,-0.908,-0.521,12.043,-5.880,30.439
0.170,-0.909,-0.522,11.027,-5.431,29.413
0.167,-0.911,-0.523,10.015,-4.962,28.253
0.163,-0.912,-0.523,9.035,-4.487,26.913
0.160,-0.912,-0.523,8.068,-4.005,25.473
0.157,-0.913,-0.523,7.076,-3.513,23.986
0.155,-0.913,-0.523,6.047,-3.035,22.469
0.154,-0.913,-0.523,4.985,-2.563,20.866
0.152,-0.913,-0.523,3.905,-2.101,19.185
0.151,-0.914,-0.524,2.810,-1.661,17.471
0.149,-0.915,-0.526,1.707,-1.184,15.477
0.148,-0.916,-0.529,0.526,-0.690,13.283
0.148,-0.918,-0.532,-0.658,-0.171,10.821
0.147,-0.920,-0.536,-1.866,0.378,8.132
0.148,-0.922,-0.540,-3.095,0.932,5.272

0.048,-1.127,-0.769,-2.766,6.891,-0.293
0.060,-1.133,-0.777,-2.373,12.535,-5.363
0.072,-1.138,-0.786,-1.694,17.734,-9.731
0.085,-1.141,-0.794,-0.890,22.235,-13.670
0.097,-1.142,-0.799,-0.075,25.513,-17.219
0.110,-1.143,-0.801,0.729,28.112,-20.298
0.122,-1.143,-0.801,1.550,30.275,-22.815
0.135,-1.142,-0.800,2.321,31.975,-24.617
0.148,-1.143,-0.799,2.985,33.508,-26.177
0.160,-1.141,-0.798,3.468,34.834,-27.649
0.173,-1.140,-0.796,3.783,35.876,-28.887
0.184,-1.138,-0.793,4.028,36.679,-29.946
0.197,-1.134,-0.788,4.250,37.101,-29.790
0.206,-1.131,-0.784,4.612,37.400,-30.000
0.217,-1.126,-0.779,4.924,37.627,-30.327
0.228,-1.121,-0.773,5.231,37.804,-30.623
0.238,-1.116,-0.766,5.596,37.893,-30.789
0.247,-1.111,-0.759,6.004,37.868,-30.787
0.256,-1.105,-0.751,6.377,37.714,-30.689
0.265,-1.099,-0.744,6.675,37.503,-30.555
0.274,-1.092,-0.736,6.797,37.255,-30.408
0.283,-1.085,-0.728,6.791,36.977,-30.218
0.292,-1.079,-0.719,6.778,36.567,-30.053
0.300,-1.073,-0.711,6.782,36.114,-29.894
0.309,-1.067,-0.702,6.834,35.657,-29.735
0.318,-1.060,-0.694,7.031,35.225,-29.552
0.326,-1.054,-0.685,7.303,34.798,-29.362
0.335,-1.047,-0.677,7.632,34.392,-29.159
0.342,-1.040,-0.668,7.979,33.993,-28.944
0.350,-1.033,-0.660,8.294,33.612,-28.736
0.358,-1.025,-0.652,8.494,33.258,-28.533
0.366,-1.018,-0.645,8.616,32.947,-28.305
0.373,-1.011,-0.638,8.691,32.628,-28.082
0.380,-1.003,-0.632,8.755,32.306,-27.867
0.387,-0.996,-0.625,8.806,31.969,-27.628
0.393,-0.990,-0.618,8.840,31.621,-27.374
0.399,-0.983,-0.611,8.890,31.261,-27.087
0.405,-0.977,-0.603,8.957,30.841,-26.777
0.410,-0.971,-0.595,9.043,30.410,-26.432
0.415,-0.965,-0.587,9.124,29.980,-26.029
0.420,-0.958,-0.579,9.192,29.594,-25.506
0.425,-0.952,-0.572,9.321,29.116,-25.012
0.429,-0.945,-0.564,9.432,28.617,-24.540
0.434,-0.938,-0.558,9.453,28.125,-24.093
0.438,-0.932,-0.552,9.388,27.653,-23.658
0.443,-0.925,-0.546,9.286,27.192,-23.236
0.447,-0.919,-0.540,9.190,26.729,-22.829
0.451,-0.914,-0.535,9.110,26.268,-22.418
0.455,-0.909,-0.529,9.075,25.809,-22.009
0.459,-0.904,-0.524,9.080,25.353,-21.597
0.463,-0.899,-0.519,9.154,24.895,-21.178
0.466,-0.895,-0.513,9.301,24.443,-20.736
0.469,-0.889,-0.507,9.437,23.975,-20.262
0.472,-0.884,-0.501,9.538,23.464,-19.763
0.476,-0.878,-0.496,9.611,22.957,-19.260
0.479,-0.873,-0.491,9.628,22.465,-18.737
0.482,-0.868,-0.486,9.559,21.980,-18.205
0.486,-0.863,-0.482,9.467,21.516,-17.673
0.488,-0.858,-0.477,9.360,21.008,-17.140
0.491,-0.853,-0.473,9.235,20.468,-16.583
0.493,-0.848,-0.469,9.092,19.954,-16.018
0.496,-0.844,-0.465,8.943,19.469,-15.441
0.499,-0.841,-0.461,8.797,18.966,-14.877
0.502,-0.838,-0.457,8.677,18.444,-14.302
0.504,-0.836,-0.453,8.603,17.895,-13.655
0.506,-0.833,-0.449,8.540,17.344,-12.990
0.508,-0.830,-0.446,8.474,16.798,-12.245
0.510,-0.828,-0.442,8.400,16.233,-11.491
0.512,-0.825,-0.439,8.294,15.654,-10.718
0.514,-0.823,-0.435,8.154,15.075,-9.949
0.517,-0.820,-0.432,8.008,14.517,-9.131
0.519,-0.818,-0.429,7.859,13.985,-8.275
0.522,-0.816,-0.425,7.721,13.478,-7.370
0.524,-0.814,-0.423,7.570,13.073,-6.517
0.527,-0.812,-0.420,7.388,12.717,-5.678
0.530,-0.810,-0.418,7.159,12.392,-4.884
0.532,-0.809,-0.415,6.910,12.044,-4.104
0.534,-0.808,-0.413,6.654,11.748,-3.207
0.536,-0.809,-0.411,6.438,11.491,-2.326
0.538,-0.808,-0.409,6.219,11.264,-1.389
0.539,-0.807,-0.407,5.990,11.037,-0.497
0.540,-0.805,-0.405,5.701,10.802,0.319
0.540,-0.804,-0.403,5.350,10.497,1.280
0.540,-0.803,-0.401,5.048,10.170,2.341
0.540,-0.803,-0.399,4.822,9.912,3.338
0.540,-0.803,-0.397,4.647,9.621,4.253
0.539,-0.803,-0.396,4.528,9.365,4.896
0.539,-0.802,-0.394,4.381,9.024,5.676
0.538,-0.803,-0.393,4.290,8.720,6.535
0.539,-0.804,-0.392,4.249,8.489,7.447
0.539,-0.805,-0.391,4.273,8.293,8.306
0.539,-0.806,-0.390,4.337,8.174,8.966
0.539,-0.807,-0.388,4.391,8.061,9.556
0.538,-0.807,-0.386,4.417,7.913,10.226
0.537,-0.809,-0.384,4.456,7.748,11.035
0.537,-0.810,-0.383,4.551,7.643,11.865
0.537,-0.811,-0.382,4.660,7.533,12.572
0.536,-0.812,-0.382,4.766,7.491,12.850
0.535,-0.813,-0.380,4.735,7.346,13.327
0.534,-0.816,-0.378,4.691,6.966,14.016
0.534,-0.819,-0.380,4.679,6.965,14.650
0.536,-0.821,-0.378,4.664,6.899,15.051
0.534,-0.822,-0.377,4.631,6.738,15.300
0.533,-0.824,-0.377,4.547,6.617,15.516
0.533,-0.826,-0.376,4.415,6.475,15.751
0.533,-0.828,-0.375,4.271,6.357,15.911
0.532,-0.829,-0.374,4.101,6.275,15.959
0.531,-0.829,-0.372,3.845,6.158,16.035
0.530,-0.830,-0.371,3.549,6.074,16.077
0.529,-0.831,-0.370,3.234,5.991,16.079
0.527,-0.832,-0.369,2.911,5.896,16.014
0.525,-0.833,-0.368,2.592,5.791,15.946
0.524,-0.834,-0.367,2.287,5.680,15.850
0.522,-0.834,-0.367,1.997,5.547,15.734
0.521,-0.834,-0.366,1.738,5.394,15.598
0.519,-0.834,-0.365,1.524,5.221,15.444
0.517,-0.833,-0.365,1.367,5.026,15.281
0.515,-0.833,-0.364,1.236,4.806,15.110
0.514,-0.832,-0.364,1.120,4.584,14.943

0.588,-0.879,-0.442,-1.070,3.290,14.887
0.589,-0.879,-0.445,-3.192,1.931,14.860
0.590,-0.878,-0.449,-5.283,0.471,14.813
0.590,-0.878,-0.452,-7.221,-1.152,14.690
0.590,-0.879,-0.456,-8.985,-2.801,14.500
0.590,-0.880,-0.459,-10.545,-4.498,14.327
0.590,-0.883,-0.462,-11.774,-6.310,14.221
0.589,-0.885,-0.465,-12.756,-8.129,14.205
0.589,-0.888,-0.469,-13.561,-10.043,14.420
0.589,-0.891,-0.473,-14.419,-12.044,14.798
0.589,-0.893,-0.477,-15.389,-14.081,15.308
0.590,-0.894,-0.483,-16.413,-16.124,15.928
0.592,-0.895,-0.489,-17.440,-17.898,16.065
0.595,-0.898,-0.494,-18.844,-19.501,16.353
0.596,-0.898,-0.501,-20.196,-20.875,16.929
0.596,-0.898,-0.507,-21.438,-22.298,17.577
0.594,-0.898,-0.513,-22.510,-23.998,18.049
0.591,-0.897,-0.518,-23.372,-25.776,18.421
0.587,-0.896,-0.523,-24.055,-27.737,18.719
0.582,-0.896,-0.527,-24.550,-29.780,19.043
0.577,-0.895,-0.532,-24.842,-31.805,19.427
0.571,-0.895,-0.537,-25.064,-33.743,19.839
0.566,-0.895,-0.543,-25.323,-35.708,20.163
0.562,-0.896,-0.548,-25.630,-37.840,20.468
0.556,-0.897,-0.552,-26.082,-40.111,20.765
0.550,-0.898,-0.555,-26.549,-42.446,21.118
0.543,-0.899,-0.556,-26.896,-44.841,21.513
0.535,-0.900,-0.556,-27.050,-47.080,21.948
0.526,-0.901,-0.555,-27.042,-48.867,22.490
0.517,-0.900,-0.556,-26.891,-50.187,23.089
0.507,-0.899,-0.556,-26.668,-51.143,23.676
0.498,-0.897,-0.559,-26.463,-51.844,24.292
0.487,-0.895,-0.562,-26.265,-52.501,24.896
0.477,-0.893,-0.567,-26.062,-53.260,25.483
0.466,-0.892,-0.572,-25.849,-54.302,26.074
0.454,-0.890,-0.577,-25.643,-55.614,26.676
0.443,-0.890,-0.581,-25.402,-57.267,27.284
0.431,-0.890,-0.583,-25.138,-59.285,27.915
0.419,-0.891,-0.584,-24.861,-61.324,28.563
0.405,-0.891,-0.584,-24.535,-63.268,29.239
0.392,-0.893,-0.583,-24.151,-64.857,29.958
0.377,-0.895,-0.584,-23.707,-66.094,30.780
0.363,-0.897,-0.585,-23.200,-67.247,31.661
0.348,-0.898,-0.587,-22.618,-68.364,32.644
0.333,-0.900,-0.590,-21.896,-69.422,33.761
0.319,-0.901,-0.594,-21.020,-70.451,34.981
0.304,-0.902,-0.599,-19.906,-71.600,36.232
0.288,-0.902,-0.604,-18.517,-72.912,37.606
0.273,-0.901,-0.608,-16.886,-74.388,39.036
0.258,-0.900,-0.612,-15.247,-75.924,40.485
0.242,-0.897,-0.614,-13.661,-77.531,41.897
0.227,-0.895,-0.616,-12.234,-78.896,43.253
0.212,-0.893,-0.619,-11.011,-80.078,44.518
0.198,-0.892,-0.622,-9.881,-81.085,45.757
0.185,-0.891,-0.626,-8.708,-82.100,47.003
0.173,-0.891,-0.631,-7.376,-83.217,48.329
0.161,-0.891,-0.636,-5.638,-84.536,49.786
0.149,-0.890,-0.639,-3.559,-86.235,51.439
0.139,-0.888,-0.640,-1.131,-88.511,53.254
0.128,-0.884,-0.639,1.510,-90.952,55.194
0.119,-0.879,-0.638,4.212,-93.251,57.254
0.111,-0.872,-0.636,6.877,-95.260,59.202
0.108,-0.866,-0.633,9.365,-96.773,61.001
0.101,-0.859,-0.630,11.515,-97.760,62.725
0.094,-0.852,-0.629,13.327,-98.364,64.364
0.087,-0.846,-0.628,14.880,-98.665,65.889
0.079,-0.840,-0.630,16.212,-98.764,67.319
0.072,-0.834,-0.631,17.422,-98.922,68.668
0.064,-0.829,-0.632,18.541,-99.309,69.978
0.055,-0.822,-0.632,19.602,-100.054,71.294
0.046,-0.815,-0.629,20.714,-101.104,72.548
0.037,-0.807,-0.624,21.809,-102.192,73.703
0.030,-0.798,-0.618,22.857,-102.958,74.722
0.023,-0.789,-0.611,23.836,-103.254,75.384
0.016,-0.780,-0.604,24.655,-102.985,75.752
0.009,-0.771,-0.597,25.267,-101.983,75.913
0.002,-0.763,-0.591,25.707,-100.618,75.891
-0.006,-0.755,-0.585,26.029,-99.070,75.644
-0.015,-0.747,-0.581,26.259,-97.513,75.267
-0.025,-0.740,-0.576,26.407,-96.082,74.778
-0.035,-0.732,-0.571,26.494,-94.781,74.195
-0.045,-0.725,-0.565,26.458,-93.603,73.482
-0.054,-0.718,-0.559,26.384,-92.477,72.674
-0.063,-0.710,-0.551,26.299,-91.300,71.779
-0.072,-0.704,-0.542,26.186,-90.037,70.822
-0.080,-0.697,-0.534,25.992,-88.658,69.746
-0.089,-0.691,-0.526,25.734,-87.171,68.583
-0.097,-0.685,-0.519,25.428,-85.652,67.344
-0.106,-0.680,-0.512,25.111,-84.130,66.014
-0.115,-0.675,-0.505,24.826,-82.648,64.658
-0.124,-0.671,-0.498,24.560,-81.246,63.300
-0.133,-0.666,-0.490,24.276,-79.920,61.948
-0.142,-0.662,-0.483,24.009,-78.655,60.576
-0.151,-0.658,-0.475,23.746,-77.403,59.209
-0.160,-0.654,-0.468,23.491,-76.150,57.855
-0.169,-0.650,-0.460,23.247,-74.883,56.515
-0.177,-0.647,-0.453,23.013,-73.600,55.196
-0.186,-0.644,-0.446,22.772,-72.297,53.899
-0.195,-0.641,-0.439,22.532,-71.013,52.631
-0.203,-0.639,-0.433,22.265,-69.767,51.377
-0.212,-0.636,-0.427,21.982,-68.564,50.137
-0.220,-0.635,-0.420,21.714,-67.380,48.860
-0.229,-0.634,-0.414,21.510,-66.189,47.561
-0.237,-0.633,-0.407,21.453,-64.963,46.259
-0.244,-0.632,-0.400,21.465,-63.692,44.995
-0.251,-0.630,-0.394,21.526,-62.362,43.745
-0.258,-0.629,-0.387,21.592,-61.030,42.479
-0.265,-0.627,-0.380,21.587,-59.708,41.187
-0.272,-0.626,-0.374,21.526,-58.393,39.865
-0.279,-0.625,-0.368,21.395,-57.061,38.521
-0.286,-0.625,-0.363,21.161,-55.715,37.167
-0.292,-0.624,-0.359,20.807,-54.364,35.822
-0.299,-0.624,-0.355,20.381,-52.962,34.483
-0.306,-0.624,-0.352,19.900,-51.540,33.148
-0.313,-0.625,-0.348,19.405,-50.138,31.825
-0.320,-0.626,-0.345,18.969,-48.746,30.520
-0.327,-0.628,-0.342,18.618,-47.319,29.264
-0.333,-0.630,-0.338,18.357,-45.883,28.067
-0.340,-0.632,-0.334,18.176,-44.457,26.940

0.159,-1.147,-0.638,18.666,-36.183,21.113
0.167,-1.155,-0.651,18.991,-29.669,16.501
0.177,-1.164,-0.663,19.173,-24.881,13.247
0.187,-1.171,-0.674,19.152,-21.391,10.903
0.198,-1.178,-0.682,18.962,-18.695,9.204
0.210,-1.183,-0.688,18.641,-16.496,8.069
0.222,-1.188,-0.691,18.211,-14.519,7.477
0.233,-1.192,-0.692,17.643,-12.741,7.157
0.242,-1.194,-0.692,16.959,-11.165,7.051
0.251,-1.195,-0.690,16.131,-9.914,7.123
0.258,-1.194,-0.688,15.105,-8.901,7.368
0.264,-1.191,-0.684,13.801,-8.082,7.794
0.270,-1.188,-0.680,12.377,-7.409,8.287
0.275,-1.183,-0.676,10.888,-6.863,8.816
0.278,-1.178,-0.671,9.423,-6.375,9.373
0.282,-1.172,-0.665,8.061,-5.909,9.965
0.284,-1.165,-0.658,6.851,-5.439,10.561
0.287,-1.158,-0.651,5.821,-4.942,11.143
0.289,-1.151,-0.644,4.967,-4.409,11.678
0.290,-1.142,-0.636,4.189,-3.792,12.239
0.292,-1.132,-0.629,3.360,-3.064,12.802
0.293,-1.122,-0.621,2.452,-2.235,13.300
0.295,-1.110,-0.614,1.480,-1.370,13.692
0.296,-1.099,-0.608,0.445,-0.461,14.006
0.297,-1.087,-0.602,-0.651,0.464,14.193
0.298,-1.075,-0.597,-1.754,1.369,14.263
0.298,-1.064,-0.593,-2.830,2.204,14.211
0.299,-1.054,-0.589,-3.783,2.947,14.075
0.301,-1.044,-0.585,-4.568,3.558,13.863
0.302,-1.036,-0.582,-5.158,4.031,13.625
0.304,-1.028,-0.578,-5.600,4.390,13.357
0.306,-1.020,-0.574,-5.907,4.600,13.034
0.309,-1.013,-0.570,-6.146,4.741,12.638
0.312,-1.007,-0.567,-6.372,4.838,12.201
0.316,-1.001,-0.564,-6.531,4.863,11.730
0.319,-0.996,-0.561,-6.666,4.807,11.245
0.323,-0.990,-0.559,-6.825,4.698,10.745
0.326,-0.986,-0.557,-7.015,4.575,10.240
0.330,-0.982,-0.556,-7.201,4.450,9.748
0.333,-0.979,-0.555,-7.344,4.309,9.298
0.336,-0.976,-0.555,-7.440,4.109,8.890
0.339,-0.973,-0.554,-7.517,3.869,8.532
0.341,-0.970,-0.553,-7.616,3.600,8.219
0.342,-0.967,-0.552,-7.755,3.332,7.925
0.344,-0.964,-0.551,-7.892,3.073,7.620
0.345,-0.961,-0.549,-8.004,2.823,7.323
0.346,-0.959,-0.548,-8.096,2.588,7.056
0.346,-0.957,-0.547,-8.186,2.347,6.831
0.347,-0.955,-0.546,-8.261,2.075,6.633
0.347,-0.952,-0.544,-8.323,1.772,6.460
0.347,-0.950,-0.543,-8.351,1.448,6.307
0.347,-0.948,-0.541,-8.359,1.138,6.184
0.347,-0.946,-0.540,-8.328,0.848,6.083
0.347,-0.944,-0.538,-8.250,0.557,5.992
0.347,-0.941,-0.537,-8.154,0.267,5.912
0.347,-0.938,-0.536,-8.073,-0.025,5.850
0.347,-0.935,-0.534,-8.033,-0.287,5.801
0.347,-0.932,-0.534,-8.039,-0.540,5.749
0.346,-0.930,-0.533,-8.039,-0.801,5.693
0.346,-0.928,-0.532,-8.028,-1.083,5.651
0.345,-0.926,-0.530,-7.991,-1.367,5.638
0.345,-0.923,-0.529,-7.928,-1.631,5.652
0.344,-0.920,-0.528,-7.857,-1.863,5.685
0.344,-0.918,-0.527,-7.788,-2.087,5.699
0.343,-0.915,-0.526,-7.714,-2.330,5.711
0.343,-0.912,-0.525,-7.629,-2.595,5.738
0.342,-0.910,-0.524,-7.514,-2.858,5.784
0.342,-0.907,-0.523,-7.362,-3.099,5.845
0.341,-0.905,-0.521,-7.200,-3.310,5.919
0.341,-0.901,-0.521,-7.083,-3.468,5.988
0.341,-0.899,-0.520,-6.998,-3.587,6.037
0.341,-0.896,-0.520,-6.927,-3.727,6.082
0.341,-0.894,-0.520,-6.832,-3.901,6.163
0.341,-0.892,-0.520,-6.712,-4.097,6.273
0.341,-0.890,-0.519,-6.567,-4.279,6.395
0.341,-0.887,-0.518,-6.435,-4.425,6.524
0.341,-0.885,-0.518,-6.361,-4.528,6.650
0.341,-0.882,-0.518,-6.349,-4.610,6.755
0.341,-0.880,-0.518,-6.346,-4.739,6.857
0.340,-0.878,-0.518,-6.341,-4.924,6.986
0.340,-0.876,-0.518,-6.332,-5.129,7.140
0.339,-0.874,-0.518,-6.307,-5.320,7.287
0.339,-0.872,-0.518,-6.286,-5.478,7.424
0.338,-0.871,-0.519,-6.288,-5.607,7.551
0.338,-0.869,-0.519,-6.314,-5.747,7.680
0.337,-0.868,-0.520,-6.332,-5.922,7.824
0.337,-0.867,-0.520,-6.341,-6.136,7.986
0.336,-0.867,-0.521,-6.355,-6.376,8.171
0.335,-0.866,-0.522,-6.366,-6.618,8.386
0.335,-0.865,-0.522,-6.378,-6.860,8.594
0.334,-0.864,-0.523,-6.391,-7.099,8.785
0.333,-0.863,-0.524,-6.418,-7.340,8.984
0.331,-0.863,-0.525,-6.453,-7.588,9.199
0.330,-0.862,-0.526,-6.489,-7.857,9.421
0.328,-0.862,-0.526,-6.507,-8.148,9.638
0.327,-0.861,-0.527,-6.505,-8.454,9.872
0.325,-0.861,-0.529,-6.501,-8.772,10.117
0.323,-0.861,-0.530,-6.484,-9.096,10.370
0.322,-0.861,-0.531,-6.467,-9.420,10.625
0.320,-0.861,-0.532,-6.439,-9.775,10.893
0.318,-0.862,-0.533,-6.391,-10.165,11.178
0.315,-0.862,-0.534,-6.337,-10.596,11.481
0.313,-0.862,-0.534,-6.267,-11.015,11.793
0.311,-0.863,-0.535,-6.190,-11.420,12.132
0.308,-0.863,-0.535,-6.111,-11.807,12.474
0.306,-0.863,-0.536,-6.040,-12.167,12.816
0.304,-0.863,-0.537,-5.982,-12.516,13.171
0.301,-0.864,-0.538,-5.922,-12.863,13.542
0.299,-0.864,-0.539,-5.857,-13.221,13.934
0.297,-0.864,-0.541,-5.791,-13.585,14.333
0.295,-0.865,-0.542,-5.716,-13.960,14.758
0.293,-0.865,-0.544,-5.628,-14.338,15.212
0.290,-0.866,-0.545,-5.548,-14.721,15.688
0.288,-0.866,-0.547,-5.465,-15.119,16.175
0.286,-0.867,-0.548,-5.375,-15.517,16.691
0.284,-0.867,-0.550,-5.295,-15.920,17.216
0.282,-0.868,-0.552,-5.222,-16.349,17.723
0.279,-0.868,-0.554,-5.163,-16.823,18.226
0.277,-0.869,-0.557,-5.101,-17.330,18.761

0.156,-1.042,-0.736,-4.122,-9.632,11.780
0.164,-1.048,-0.740,-3.208,-3.734,6.169
0.174,-1.054,-0.742,-2.332,0.803,1.929
0.184,-1.058,-0.742,-1.398,4.462,-1.601
0.194,-1.062,-0.739,-0.436,7.818,-4.592
0.207,-1.064,-0.734,0.458,11.409,-7.080
0.219,-1.065,-0.728,1.226,15.196,-8.923
0.231,-1.064,-0.724,1.919,18.932,-10.507
0.242,-1.062,-0.719,2.490,22.300,-11.801
0.252,-1.060,-0.717,2.902,25.370,-12.733
0.262,-1.058,-0.718,3.168,28.136,-13.350
0.271,-1.055,-0.720,3.337,30.415,-13.983
0.281,-1.051,-0.722,3.417,32.169,-14.641
0.290,-1.047,-0.722,3.412,33.288,-15.148
0.299,-1.043,-0.719,3.449,33.953,-15.587
0.307,-1.041,-0.716,3.637,34.301,-16.087
0.315,-1.037,-0.710,3.873,34.471,-16.553
0.324,-1.034,-0.702,4.125,34.572,-16.940
0.332,-1.030,-0.694,4.369,34.577,-17.256
0.340,-1.026,-0.685,4.599,34.517,-17.464
0.348,-1.020,-0.675,4.786,34.387,-17.499
0.355,-1.014,-0.666,4.918,34.169,-17.479
0.362,-1.006,-0.658,4.984,33.892,-17.511
0.369,-0.999,-0.652,4.973,33.593,-17.574
0.376,-0.992,-0.647,4.888,33.239,-17.596
0.382,-0.986,-0.643,4.795,32.791,-17.591
0.389,-0.980,-0.639,4.715,32.235,-17.559
0.396,-0.975,-0.634,4.680,31.576,-17.503
0.402,-0.971,-0.629,4.675,30.881,-17.404
0.409,-0.966,-0.623,4.692,30.167,-17.253
0.415,-0.961,-0.617,4.727,29.443,-17.073
0.421,-0.955,-0.610,4.756,28.701,-16.887
0.427,-0.949,-0.603,4.760,27.943,-16.697
0.433,-0.943,-0.597,4.699,27.171,-16.499
0.438,-0.938,-0.590,4.559,26.374,-16.261
0.442,-0.933,-0.584,4.384,25.558,-15.995
0.447,-0.928,-0.578,4.194,24.721,-15.720
0.451,-0.923,-0.572,3.989,23.862,-15.451
0.455,-0.918,-0.567,3.780,23.006,-15.177
0.459,-0.914,-0.562,3.590,22.153,-14.889
0.463,-0.911,-0.558,3.422,21.306,-14.576
0.467,-0.907,-0.553,3.239,20.466,-14.247
0.470,-0.904,-0.548,3.029,19.637,-13.916
0.473,-0.900,-0.544,2.786,18.821,-13.578
0.476,-0.897,-0.539,2.528,18.018,-13.236
0.478,-0.893,-0.535,2.285,17.250,-12.874
0.480,-0.889,-0.530,2.103,16.496,-12.505
0.483,-0.885,-0.526,1.915,15.743,-12.152
0.485,-0.881,-0.521,1.686,15.003,-11.822
0.487,-0.877,-0.517,1.451,14.295,-11.499
0.489,-0.874,-0.514,1.244,13.627,-11.171
0.491,-0.872,-0.510,1.079,12.975,-10.841
0.493,-0.870,-0.507,0.958,12.329,-10.503
0.494,-0.867,-0.503,0.849,11.702,-10.180
0.496,-0.865,-0.500,0.752,11.111,-9.868
0.498,-0.863,-0.497,0.642,10.545,-9.542
0.499,-0.861,-0.493,0.526,9.982,-9.217
0.500,-0.859,-0.490,0.367,9.438,-8.879
0.502,-0.856,-0.488,0.199,8.906,-8.541
0.503,-0.854,-0.485,0.036,8.375,-8.213
0.504,-0.852,-0.483,-0.121,7.848,-7.888
0.505,-0.850,-0.480,-0.272,7.332,-7.551
0.506,-0.848,-0.478,-0.445,6.848,-7.191
0.507,-0.846,-0.476,-0.637,6.340,-6.821
0.508,-0.845,-0.475,-0.843,5.796,-6.455
0.510,-0.843,-0.473,-1.077,5.224,-6.052
0.511,-0.841,-0.471,-1.296,4.671,-5.624
0.512,-0.840,-0.469,-1.502,4.152,-5.194
0.513,-0.838,-0.467,-1.698,3.643,-4.772
0.514,-0.837,-0.466,-1.892,3.148,-4.343
0.515,-0.835,-0.465,-2.083,2.673,-3.908
0.515,-0.834,-0.464,-2.299,2.224,-3.462
0.516,-0.833,-0.463,-2.524,1.783,-3.019
0.516,-0.833,-0.463,-2.743,1.355,-2.571
0.517,-0.833,-0.464,-2.972,0.926,-2.119
0.517,-0.833,-0.465,-3.191,0.475,-1.656
0.517,-0.834,-0.466,-3.370,-0.010,-1.174
0.518,-0.836,-0.468,-3.464,-0.530,-0.637
0.519,-0.837,-0.470,-3.469,-1.082,-0.049
0.520,-0.839,-0.472,-3.367,-1.686,0.586
0.521,-0.840,-0.474,-3.123,-2.339,1.249
0.521,-0.842,-0.477,-2.589,-3.039,1.952
0.522,-0.843,-0.478,-1.819,-3.808,2.703
0.523,-0.845,-0.480,-0.749,-4.665,3.520
0.523,-0.846,-0.481,0.683,-5.537,4.404
0.524,-0.848,-0.482,2.733,-6.405,5.317
0.524,-0.850,-0.483,5.290,-7.260,6.268
0.525,-0.853,-0.484,8.337,-8.092,7.291
0.525,-0.856,-0.485,11.887,-8.900,8.417
0.526,-0.858,-0.486,16.077,-9.725,9.698
0.526,-0.861,-0.487,20.550,-10.636,11.111
0.526,-0.864,-0.487,25.189,-11.712,12.574
0.525,-0.866,-0.486,29.745,-12.992,14.056
0.525,-0.868,-0.484,34.134,-14.318,15.609
0.524,-0.871,-0.482,38.436,-15.615,17.264
0.523,-0.874,-0.479,42.665,-16.823,18.985
0.522,-0.877,-0.475,46.972,-17.960,20.790
0.521,-0.881,-0.472,51.411,-19.016,22.673
0.519,-0.886,-0.468,56.067,-20.110,24.793
0.517,-0.890,-0.465,60.806,-21.306,26.983
0.514,-0.894,-0.460,65.608,-22.610,29.257
0.512,-0.899,-0.456,70.574,-23.860,31.630
0.510,-0.905,-0.453,76.287,-25.024,34.154
0.508,-0.911,-0.448,82.279,-26.153,36.784
0.505,-0.916,-0.444,88.485,-27.121,39.535
0.502,-0.922,-0.440,94.768,-27.946,42.480
0.499,-0.927,-0.435,103.042,-28.690,45.595
0.496,-0.933,-0.430,109.713,-29.578,48.764
0.492,-0.940,-0.425,116.381,-30.577,51.987
0.488,-0.947,-0.418,122.910,-31.640,55.414
0.484,-0.953,-0.410,129.443,-32.774,58.989
0.480,-0.959,-0.402,136.052,-33.887,62.554
0.477,-0.965,-0.394,143.260,-34.875,65.973
0.472,-0.971,-0.384,150.719,-35.794,69.216
0.468,-0.976,-0.373,158.554,-36.624,72.609
0.462,-0.980,-0.360,166.205,-37.334,76.145
0.456,-0.983,-0.346,173.248,-37.721,79.812
0.450,-0.985,-0.330,179.306,-37.775,83.461
0.444,-0.985,-0.314,184.013,-37.490,87.001

0.265,-0.304,1.361,179.244,-41.978,79.851
0.273,-0.302,1.366,174.781,-45.364,73.072
0.281,-0.299,1.370,169.642,-47.832,66.433
0.291,-0.298,1.373,164.145,-49.220,59.947
0.302,-0.299,1.376,158.852,-49.948,53.955
0.313,-0.303,1.378,154.340,-50.190,48.623
0.323,-0.307,1.380,150.495,-50.116,44.072
0.333,-0.310,1.380,146.672,-49.819,40.017
0.343,-0.311,1.379,142.944,-49.333,36.392
0.351,-0.310,1.377,139.347,-48.695,33.058
0.359,-0.309,1.372,135.886,-47.991,29.973
0.366,-0.309,1.367,132.555,-47.236,27.157
0.374,-0.310,1.363,129.218,-46.468,24.578
0.383,-0.311,1.358,125.715,-45.668,22.285
0.391,-0.312,1.352,122.153,-44.852,20.305
0.400,-0.313,1.345,118.589,-44.003,18.603
0.408,-0.314,1.336,115.122,-43.136,17.171
0.416,-0.313,1.327,111.805,-42.254,15.990
0.423,-0.313,1.318,108.753,-41.363,15.066
0.429,-0.312,1.307,105.892,-40.478,14.301
0.434,-0.310,1.297,103.169,-39.602,13.672
0.439,-0.308,1.285,100.543,-38.739,13.150
0.443,-0.307,1.273,98.007,-37.919,12.694
0.446,-0.305,1.261,95.606,-37.136,12.310
0.449,-0.303,1.247,93.346,-36.380,11.981
0.452,-0.301,1.235,91.144,-35.658,11.666
0.454,-0.299,1.223,88.999,-34.975,11.380
0.456,-0.297,1.212,86.911,-34.332,11.113
0.459,-0.294,1.203,84.875,-33.724,10.860
0.462,-0.292,1.194,82.830,-33.138,10.647
0.466,-0.290,1.184,80.817,-32.562,10.476
0.469,-0.287,1.175,78.828,-31.985,10.342
0.473,-0.285,1.165,76.861,-31.392,10.241
0.476,-0.283,1.155,74.942,-30.785,10.174
0.479,-0.281,1.146,73.081,-30.170,10.139
0.482,-0.279,1.137,71.315,-29.547,10.124
0.485,-0.277,1.128,69.621,-28.929,10.132
0.488,-0.275,1.120,67.991,-28.325,10.154
0.490,-0.272,1.112,66.405,-27.735,10.177
0.492,-0.269,1.104,64.823,-27.155,10.192
0.493,-0.265,1.097,63.222,-26.594,10.193
0.494,-0.262,1.090,61.597,-26.053,10.173
0.496,-0.259,1.083,59.975,-25.533,10.129
0.497,-0.256,1.077,58.368,-25.034,10.061
0.498,-0.254,1.072,56.776,-24.553,9.962
0.499,-0.251,1.066,55.203,-24.089,9.854
0.500,-0.249,1.060,53.677,-23.635,9.741
0.501,-0.247,1.054,52.197,-23.182,9.632
0.502,-0.244,1.048,50.754,-22.725,9.524
0.503,-0.241,1.043,49.342,-22.265,9.412
0.504,-0.239,1.038,47.955,-21.810,9.299
0.505,-0.237,1.032,46.609,-21.354,9.178
0.505,-0.234,1.028,45.283,-20.894,9.056
0.506,-0.232,1.024,43.970,-20.429,8.930
0.506,-0.230,1.020,42.659,-19.973,8.788
0.507,-0.228,1.017,41.385,-19.538,8.625
0.507,-0.226,1.013,40.173,-19.112,8.448
0.508,-0.225,1.010,39.016,-18.684,8.256
0.508,-0.223,1.006,37.883,-18.245,8.046
0.508,-0.221,1.003,36.774,-17.814,7.824
0.509,-0.220,1.001,35.664,-17.402,7.581
0.509,-0.218,0.998,34.556,-17.012,7.329
0.510,-0.217,0.994,33.479,-16.624,7.078
0.511,-0.216,0.989,32.433,-16.211,6.830
0.511,-0.215,0.985,31.405,-15.719,6.589
0.512,-0.214,0.981,30.397,-15.187,6.362
0.513,-0.213,0.979,29.398,-14.654,6.140
0.513,-0.212,0.978,28.420,-14.133,5.907
0.514,-0.213,0.977,27.484,-13.626,5.685
0.515,-0.213,0.975,26.597,-13.127,5.485
0.516,-0.212,0.973,25.762,-12.604,5.300
0.516,-0.212,0.970,24.953,-12.060,5.131
0.517,-0.212,0.968,24.144,-11.498,4.982
0.518,-0.212,0.965,23.332,-10.930,4.832
0.518,-0.212,0.964,22.520,-10.379,4.682
0.518,-0.212,0.962,21.721,-9.853,4.531
0.518,-0.213,0.960,20.948,-9.333,4.389
0.518,-0.213,0.957,20.213,-8.814,4.265
0.518,-0.213,0.955,19.495,-8.294,4.151
0.518,-0.213,0.952,18.792,-7.774,4.048
0.518,-0.213,0.950,18.087,-7.250,3.949
0.518,-0.213,0.948,17.384,-6.724,3.858
0.518,-0.213,0.947,16.700,-6.192,3.774
0.518,-0.214,0.945,16.041,-5.651,3.710
0.518,-0.214,0.944,15.414,-5.104,3.658
0.518,-0.215,0.943,14.803,-4.540,3.625
0.518,-0.215,0.943,14.198,-3.951,3.613
0.518,-0.216,0.942,13.610,-3.357,3.617
0.518,-0.216,0.941,13.012,-2.755,3.637
0.518,-0.217,0.940,12.412,-2.152,3.664
0.517,-0.217,0.939,11.823,-1.539,3.694
0.517,-0.218,0.938,11.238,-0.929,3.740
0.516,-0.218,0.937,10.671,-0.329,3.792
0.515,-0.219,0.936,10.127,0.265,3.860
0.514,-0.219,0.935,9.623,0.858,3.931
0.513,-0.220,0.933,9.151,1.453,4.012
0.511,-0.220,0.932,8.717,2.042,4.104
0.510,-0.221,0.932,8.312,2.617,4.198
0.509,-0.221,0.932,7.923,3.173,4.295
0.507,-0.221,0.932,7.544,3.708,4.401
0.506,-0.222,0.933,7.174,4.225,4.510
0.505,-0.222,0.933,6.800,4.726,4.623
0.504,-0.223,0.933,6.423,5.223,4.750
0.503,-0.223,0.933,6.049,5.735,4.887
0.502,-0.224,0.933,5.685,6.256,5.029
0.501,-0.224,0.933,5.341,6.795,5.173
0.499,-0.225,0.933,5.031,7.337,5.326
0.498,-0.226,0.933,4.743,7.880,5.478
0.496,-0.226,0.934,4.452,8.415,5.632
0.495,-0.227,0.934,4.165,8.942,5.790
0.493,-0.228,0.935,3.886,9.471,5.954
0.492,-0.229,0.936,3.620,9.995,6.122
0.490,-0.230,0.938,3.365,10.509,6.300
0.489,-0.231,0.939,3.107,11.016,6.488
0.487,-0.232,0.941,2.849,11.505,6.683
0.486,-0.233,0.943,2.575,11.986,6.889
0.484,-0.234,0.945,2.294,12.491,7.107
0.483,-0.234,0.946,1.998,13.011,7.341
0.481,-0.235,0.947,1.731,13.552,7.574

0.234,-0.329,1.368,1.865,10.856,6.693
0.234,-0.330,1.378,1.718,9.030,5.707
0.234,-0.330,1.385,1.229,7.754,4.668
0.231,-0.329,1.390,0.415,6.846,3.556
0.229,-0.328,1.392,-0.644,6.199,2.370
0.227,-0.327,1.392,-1.895,5.740,1.106
0.225,-0.326,1.389,-3.195,5.434,-0.101
0.223,-0.326,1.385,-4.408,5.228,-1.219
0.222,-0.325,1.377,-5.400,5.084,-2.245
0.221,-0.325,1.369,-6.162,4.960,-3.187
0.219,-0.324,1.359,-6.648,4.826,-4.000
0.218,-0.323,1.349,-6.999,4.665,-4.715
0.216,-0.321,1.338,-7.246,4.453,-5.355
0.215,-0.320,1.327,-7.411,4.117,-5.913
0.213,-0.318,1.315,-7.530,3.689,-6.403
0.212,-0.316,1.304,-7.597,3.179,-6.808
0.210,-0.313,1.292,-7.636,2.583,-7.169
0.209,-0.310,1.282,-7.663,1.902,-7.488
0.209,-0.307,1.272,-7.652,1.197,-7.785
0.209,-0.305,1.263,-7.566,0.480,-8.049
0.209,-0.303,1.254,-7.383,-0.231,-8.259
0.210,-0.301,1.246,-7.162,-0.919,-8.444
0.210,-0.299,1.238,-6.944,-1.570,-8.598
0.211,-0.297,1.231,-6.753,-2.197,-8.745
0.212,-0.295,1.224,-6.599,-2.821,-8.901
0.212,-0.293,1.217,-6.461,-3.438,-9.075
0.213,-0.292,1.211,-6.352,-4.067,-9.258
0.214,-0.291,1.204,-6.289,-4.708,-9.458
0.216,-0.290,1.198,-6.227,-5.328,-9.663
0.217,-0.290,1.192,-6.142,-5.923,-9.855
0.219,-0.289,1.186,-6.022,-6.499,-10.020
0.221,-0.289,1.180,-5.884,-7.029,-10.168
0.223,-0.288,1.175,-5.749,-7.495,-10.296
0.226,-0.288,1.169,-5.570,-7.893,-10.351
0.229,-0.287,1.164,-5.369,-8.214,-10.372
0.232,-0.287,1.159,-5.153,-8.464,-10.353
0.234,-0.287,1.154,-4.929,-8.666,-10.316
0.236,-0.286,1.149,-4.708,-8.862,-10.260
0.238,-0.286,1.145,-4.497,-9.029,-10.196
0.240,-0.285,1.140,-4.296,-9.191,-10.130
0.242,-0.285,1.134,-4.112,-9.359,-10.069
0.243,-0.284,1.129,-3.943,-9.537,-10.012
0.244,-0.284,1.123,-3.769,-9.734,-9.965
0.245,-0.283,1.117,-3.570,-9.943,-9.912
0.246,-0.283,1.111,-3.356,-10.166,-9.848
0.246,-0.282,1.105,-3.135,-10.380,-9.781
0.247,-0.281,1.100,-2.924,-10.594,-9.703
0.248,-0.280,1.094,-2.708,-10.820,-9.605
0.249,-0.279,1.090,-2.468,-11.045,-9.489
0.250,-0.278,1.085,-2.228,-11.255,-9.362
0.252,-0.277,1.081,-1.973,-11.475,-9.232
0.253,-0.276,1.077,-1.719,-11.696,-9.101
0.254,-0.275,1.073,-1.485,-11.939,-8.970
0.254,-0.274,1.069,-1.245,-12.199,-8.841
0.255,-0.274,1.064,-0.996,-12.473,-8.719
0.256,-0.273,1.059,-0.754,-12.752,-8.612
0.257,-0.272,1.054,-0.529,-13.020,-8.515
0.257,-0.270,1.049,-0.326,-13.280,-8.429
0.258,-0.269,1.045,-0.126,-13.508,-8.357
0.260,-0.268,1.041,0.059,-13.689,-8.282
0.261,-0.267,1.038,0.237,-13.815,-8.224
0.262,-0.266,1.035,0.421,-13.929,-8.171
0.263,-0.265,1.033,0.631,-14.048,-8.120
0.265,-0.265,1.030,0.838,-14.172,-8.066
0.266,-0.264,1.028,1.060,-14.303,-8.014
0.268,-0.263,1.026,1.254,-14.448,-7.975
0.269,-0.262,1.023,1.403,-14.604,-7.939
0.271,-0.261,1.020,1.529,-14.747,-7.926
0.273,-0.259,1.016,1.655,-14.852,-7.932
0.274,-0.258,1.013,1.780,-14.920,-7.949
0.275,-0.256,1.010,1.897,-14.971,-7.979
0.276,-0.255,1.007,1.995,-15.004,-8.018
0.278,-0.254,1.005,2.089,-15.018,-8.071
0.280,-0.253,1.004,2.151,-15.049,-8.137
0.281,-0.252,1.003,2.175,-15.103,-8.213
0.283,-0.251,1.002,2.160,-15.176,-8.301
0.285,-0.250,1.001,2.115,-15.275,-8.394
0.287,-0.250,0.999,2.037,-15.388,-8.486
0.289,-0.249,0.997,1.910,-15.485,-8.574
0.292,-0.248,0.995,1.781,-15.575,-8.666
0.294,-0.248,0.993,1.661,-15.644,-8.752
0.296,-0.247,0.991,1.566,-15.708,-8.834
0.298,-0.246,0.989,1.494,-15.763,-8.916
0.300,-0.246,0.987,1.467,-15.810,-8.986
0.302,-0.245,0.985,1.457,-15.858,-9.052
0.304,-0.245,0.985,1.437,-15.915,-9.104
0.307,-0.244,0.984,1.398,-15.987,-9.139
0.310,-0.244,0.985,1.336,-16.075,-9.154
0.314,-0.244,0.985,1.254,-16.157,-9.151
0.317,-0.244,0.985,1.161,-16.227,-9.133
0.321,-0.244,0.985,1.054,-16.271,-9.096
0.324,-0.244,0.984,0.931,-16.282,-9.051
0.328,-0.243,0.984,0.799,-16.277,-8.999
0.331,-0.242,0.983,0.671,-16.238,-8.932
0.335,-0.241,0.981,0.566,-16.157,-8.853
0.338,-0.240,0.980,0.475,-16.031,-8.768
0.341,-0.239,0.978,0.387,-15.892,-8.682
0.343,-0.237,0.977,0.322,-15.748,-8.615
0.346,-0.236,0.976,0.282,-15.608,-8.561
0.348,-0.235,0.974,0.251,-15.477,-8.514
0.350,-0.234,0.973,0.227,-15.372,-8.493
0.352,-0.233,0.972,0.172,-15.300,-8.496
0.354,-0.232,0.972,0.091,-15.263,-8.508
0.357,-0.231,0.971,-0.000,-15.253,-8.527
0.359,-0.230,0.969,-0.095,-15.237,-8.554
0.361,-0.229,0.967,-0.194,-15.200,-8.574
0.363,-0.228,0.964,-0.279,-15.120,-8.583
0.365,-0.227,0.961,-0.334,-15.006,-8.596
0.367,-0.225,0.958,-0.373,-14.867,-8.623
0.369,-0.224,0.956,-0.397,-14.717,-8.658
0.370,-0.223,0.954,-0.411,-14.577,-8.702
0.372,-0.222,0.952,-0.380,-14.458,-8.751
0.373,-0.222,0.950,-0.328,-14.364,-8.811
0.374,-0.221,0.948,-0.264,-14.319,-8.880
0.375,-0.220,0.946,-0.194,-14.306,-8.962
0.376,-0.219,0.943,-0.131,-14.329,-9.066
0.377,-0.218,0.940,-0.074,-14.383,-9.179
0.378,-0.217,0.936,-0.000,-14.447,-9.309
0.379,-0.216,0.932,0.088,-14.516,-9.464

0.243,-0.389,1.320,-0.636,-15.568,-11.090
0.242,-0.405,1.339,-1.866,-15.980,-12.612
0.239,-0.419,1.352,-3.411,-15.895,-13.942
0.234,-0.433,1.358,-4.827,-15.540,-13.641
0.238,-0.454,1.360,-5.049,-14.981,-13.904
0.231,-0.460,1.361,-5.503,-14.223,-14.053
0.226,-0.463,1.362,-6.013,-13.331,-13.758
0.221,-0.466,1.359,-6.404,-12.497,-13.367
0.215,-0.465,1.354,-6.750,-11.785,-12.972
0.210,-0.463,1.348,-6.961,-11.203,-12.571
0.204,-0.459,1.340,-7.066,-10.721,-12.131
0.199,-0.453,1.331,-7.050,-10.362,-11.733
0.195,-0.446,1.320,-6.895,-10.128,-11.376
0.190,-0.438,1.309,-6.705,-10.022,-11.051
0.186,-0.428,1.296,-6.496,-10.043,-10.791
0.182,-0.418,1.283,-6.863,-10.136,-10.599
0.179,-0.408,1.269,-6.715,-10.310,-10.479
0.177,-0.399,1.255,-6.602,-10.574,-10.429
0.174,-0.389,1.242,-6.497,-10.914,-10.454
0.173,-0.382,1.230,-6.413,-11.321,-10.534
0.172,-0.377,1.219,-6.288,-11.807,-10.783
0.172,-0.373,1.210,-6.189,-12.352,-10.995
0.172,-0.370,1.202,-6.050,-12.949,-11.192
0.173,-0.368,1.194,-5.880,-13.584,-11.393
0.173,-0.366,1.187,-5.698,-14.244,-11.603
0.173,-0.365,1.180,-5.477,-14.882,-11.829
0.173,-0.364,1.173,-5.212,-15.486,-12.082
0.173,-0.363,1.166,-4.922,-16.051,-12.332
0.172,-0.361,1.159,-4.612,-16.572,-12.588
0.172,-0.360,1.153,-4.285,-17.064,-12.870
0.173,-0.360,1.149,-3.977,-17.537,-13.167
0.174,-0.359,1.145,-3.700,-18.005,-13.445
0.176,-0.359,1.141,-3.439,-18.452,-13.687
0.178,-0.359,1.137,-3.200,-18.870,-13.884
0.180,-0.359,1.132,-2.978,-19.244,-14.019
0.183,-0.358,1.127,-2.763,-19.571,-14.117
0.185,-0.358,1.122,-2.528,-19.846,-14.197
0.186,-0.357,1.116,-2.290,-20.094,-14.249
0.188,-0.355,1.111,-2.051,-20.318,-14.289
0.189,-0.353,1.106,-1.796,-20.510,-14.321
0.191,-0.351,1.101,-1.512,-20.677,-14.348
0.192,-0.350,1.096,-1.200,-20.853,-14.389
0.193,-0.348,1.092,-0.890,-21.040,-14.429
0.194,-0.347,1.089,-0.586,-21.269,-14.490
0.195,-0.346,1.085,-0.303,-21.537,-14.549
0.196,-0.345,1.081,-0.068,-21.866,-14.608
0.197,-0.344,1.076,0.133,-22.200,-14.663
0.199,-0.343,1.071,0.337,-22.541,-14.683
0.200,-0.342,1.066,0.535,-22.862,-14.680
0.202,-0.340,1.061,0.730,-23.162,-14.663
0.204,-0.339,1.058,0.950,-23.444,-14.649
0.206,-0.338,1.054,1.234,-23.699,-14.628
0.207,-0.337,1.050,1.586,-23.938,-14.606
0.210,-0.336,1.048,1.956,-24.152,-14.588
0.211,-0.335,1.045,2.299,-24.386,-14.579
0.213,-0.334,1.043,2.620,-24.624,-14.593
0.215,-0.333,1.039,2.902,-24.837,-14.601
0.217,-0.332,1.036,3.168,-25.065,-14.623
0.220,-0.330,1.033,3.368,-25.296,-14.645
0.222,-0.328,1.030,3.507,-25.541,-14.705
0.223,-0.327,1.028,3.616,-25.793,-14.786
0.226,-0.326,1.025,3.716,-26.046,-14.871
0.228,-0.324,1.023,3.807,-26.294,-15.647
0.231,-0.323,1.020,3.885,-26.520,-15.723
0.234,-0.321,1.017,3.955,-26.711,-15.777
0.237,-0.320,1.015,4.023,-26.869,-15.820
0.240,-0.318,1.012,4.088,-27.001,-15.844
0.243,-0.317,1.009,4.183,-27.116,-15.880
0.247,-0.315,1.006,4.325,-27.209,-15.900
0.250,-0.314,1.004,4.479,-27.274,-15.915
0.252,-0.312,1.002,4.636,-27.323,-15.942
0.255,-0.310,0.999,4.780,-27.344,-15.989
0.258,-0.308,0.997,4.899,-27.334,-16.036
0.261,-0.306,0.994,4.958,-27.302,-16.086
0.264,-0.304,0.992,4.978,-27.258,-16.151
0.267,-0.303,0.990,4.980,-27.202,-16.220
0.270,-0.301,0.988,4.956,-27.143,-16.280
0.273,-0.300,0.987,4.945,-27.084,-16.340
0.276,-0.299,0.986,4.953,-27.021,-16.394
0.280,-0.298,0.984,4.975,-26.946,-16.456
0.283,-0.297,0.983,5.000,-26.832,-16.524
0.286,-0.295,0.981,5.012,-26.691,-16.599
0.289,-0.294,0.981,5.002,-26.560,-16.704
0.292,-0.292,0.980,4.981,-26.439,-16.820
0.295,-0.291,0.978,4.956,-26.320,-16.945
0.298,-0.289,0.977,4.894,-26.205,-17.067
0.301,-0.288,0.975,4.789,-26.093,-17.196
0.304,-0.286,0.973,4.702,-25.976,-17.340
0.307,-0.284,0.970,4.628,-25.853,-17.470
0.310,-0.282,0.968,4.546,-25.707,-17.580
0.313,-0.280,0.966,4.481,-25.552,-17.730
0.316,-0.279,0.964,4.405,-25.392,-17.838
0.319,-0.277,0.962,4.363,-25.228,-17.933
0.323,-0.275,0.959,4.327,-25.060,-18.032
0.326,-0.274,0.957,4.289,-24.873,-18.109
0.330,-0.272,0.955,4.245,-24.662,-18.159
0.333,-0.270,0.953,4.221,-24.445,-18.207
0.337,-0.269,0.951,4.212,-24.226,-18.233
0.341,-0.268,0.950,4.177,-24.031,-18.281
0.344,-0.266,0.950,4.070,-23.885,-18.314
0.347,-0.265,0.949,3.943,-23.814,-18.341
0.350,-0.264,0.948,3.843,-23.778,-18.384
0.354,-0.262,0.946,3.774,-23.742,-18.422
0.357,-0.260,0.943,3.722,-23.714,-18.437
0.361,-0.258,0.941,3.696,-23.689,-18.452
0.364,-0.256,0.939,3.709,-23.641,-18.482
0.367,-0.254,0.937,3.763,-23.570,-18.526
0.370,-0.252,0.935,3.867,-23.493,-18.574
0.374,-0.250,0.933,3.997,-23.408,-18.617
0.378,-0.247,0.931,4.142,-23.328,-18.667
0.381,-0.245,0.930,4.269,-23.281,-18.728
0.385,-0.243,0.930,4.342,-23.280,-18.808
0.388,-0.241,0.929,4.383,-23.335,-18.904
0.391,-0.239,0.928,4.407,-23.446,-19.010
0.395,-0.237,0.927,4.427,-23.615,-19.123
0.398,-0.235,0.926,4.454,-23.845,-19.244
0.402,-0.232,0.924,4.507,-24.088,-19.380
0.406,-0.230,0.922,4.567,-24.329,-19.513
0.410,-0.227,0.920,4.643,-24.564,-19.645

0.445,-0.115,1.383,5.122,-30.625,-27.457
0.461,-0.120,1.394,5.240,-35.290,-34.232
0.476,-0.126,1.402,5.242,-38.877,-40.215
0.492,-0.133,1.407,5.074,-41.459,-45.371
0.508,-0.138,1.411,4.811,-43.393,-49.692
0.522,-0.143,1.412,4.583,-44.858,-53.283
0.538,-0.148,1.412,4.418,-45.721,-56.128
0.551,-0.152,1.412,4.267,-46.315,-58.585
0.562,-0.154,1.412,4.125,-46.667,-60.562
0.575,-0.156,1.411,4.021,-46.902,-62.178
0.584,-0.159,1.410,3.938,-47.145,-63.590
0.595,-0.163,1.407,3.857,-47.312,-64.581
0.604,-0.167,1.402,3.871,-47.448,-65.236
0.611,-0.168,1.396,3.845,-47.494,-65.675
0.620,-0.169,1.388,3.739,-47.410,-65.761
0.628,-0.171,1.378,3.593,-47.142,-65.700
0.636,-0.172,1.369,3.433,-46.716,-65.391
0.643,-0.173,1.359,3.284,-46.167,-64.866
0.649,-0.173,1.349,3.155,-45.546,-64.119
0.655,-0.173,1.340,3.074,-44.875,-63.210
0.660,-0.172,1.330,3.020,-44.142,-62.176
0.664,-0.170,1.319,3.005,-43.357,-61.072
0.668,-0.168,1.307,3.052,-42.521,-59.868
0.672,-0.166,1.295,3.155,-41.654,-58.632
0.675,-0.163,1.283,3.240,-40.735,-57.384
0.678,-0.160,1.272,3.236,-39.798,-56.134
0.681,-0.158,1.261,3.146,-38.873,-54.884
0.683,-0.155,1.250,2.999,-37.973,-53.648
0.685,-0.152,1.238,2.810,-37.084,-52.419
0.687,-0.150,1.226,2.630,-36.184,-51.212
0.688,-0.147,1.213,2.507,-35.246,-50.015
0.689,-0.144,1.201,2.432,-34.269,-48.835
0.689,-0.141,1.189,2.380,-33.344,-47.667
0.689,-0.137,1.178,2.355,-32.492,-46.514
0.688,-0.132,1.166,2.339,-31.694,-45.380
0.687,-0.128,1.154,2.339,-30.920,-44.265
0.686,-0.124,1.142,2.356,-30.184,-43.176
0.685,-0.120,1.131,2.404,-29.507,-42.104
0.684,-0.117,1.120,2.528,-28.900,-41.083
0.682,-0.114,1.108,2.702,-28.339,-40.095
0.681,-0.110,1.097,2.888,-27.821,-39.136
0.680,-0.107,1.087,3.081,-27.342,-38.208
0.679,-0.104,1.077,3.283,-26.893,-37.314
0.678,-0.101,1.066,3.520,-26.461,-36.454
0.677,-0.098,1.056,3.775,-26.016,-35.639
0.676,-0.094,1.045,4.006,-25.534,-34.859
0.676,-0.091,1.036,4.163,-25.026,-34.110
0.675,-0.088,1.028,4.258,-24.536,-33.407
0.675,-0.085,1.020,4.330,-24.087,-32.741
0.674,-0.083,1.012,4.405,-23.672,-32.105
0.674,-0.081,1.003,4.502,-23.252,-31.508
0.673,-0.080,0.996,4.608,-22.843,-30.938
0.673,-0.078,0.988,4.730,-22.441,-30.395
0.673,-0.076,0.981,4.833,-22.040,-29.874
0.673,-0.073,0.974,4.890,-21.619,-29.381
0.672,-0.070,0.967,4.899,-21.163,-28.913
0.672,-0.068,0.960,4.872,-20.683,-28.478
0.673,-0.066,0.954,4.805,-20.214,-28.076
0.673,-0.064,0.948,4.700,-19.773,-27.696
0.673,-0.063,0.943,4.553,-19.388,-27.333
0.673,-0.061,0.937,4.377,-19.043,-26.978
0.673,-0.060,0.932,4.191,-18.734,-26.623
0.672,-0.059,0.927,4.011,-18.461,-26.263
0.673,-0.058,0.921,3.864,-18.205,-25.907
0.673,-0.056,0.916,3.740,-17.956,-25.552
0.673,-0.055,0.911,3.631,-17.719,-25.209
0.673,-0.053,0.906,3.534,-17.506,-24.871
0.673,-0.052,0.901,3.439,-17.305,-24.543
0.673,-0.050,0.897,3.330,-17.113,-24.237
0.673,-0.048,0.893,3.190,-16.929,-23.942
0.674,-0.047,0.889,3.015,-16.751,-23.663
0.674,-0.045,0.885,2.808,-16.592,-23.392
0.674,-0.044,0.882,2.553,-16.446,-23.132
0.674,-0.042,0.878,2.281,-16.307,-22.872
0.675,-0.041,0.874,1.996,-16.180,-22.622
0.675,-0.039,0.870,1.702,-16.060,-22.382
0.675,-0.037,0.866,1.432,-15.935,-22.139
0.675,-0.035,0.861,1.211,-15.801,-21.913
0.676,-0.033,0.857,1.026,-15.667,-21.697
0.676,-0.031,0.854,0.854,-15.559,-21.486
0.676,-0.029,0.850,0.695,-15.468,-21.277
0.676,-0.028,0.847,0.539,-15.395,-21.081
0.675,-0.026,0.843,0.384,-15.343,-20.886
0.675,-0.025,0.840,0.242,-15.305,-20.694
0.675,-0.023,0.837,0.114,-15.277,-20.511
0.676,-0.022,0.833,0.004,-15.255,-20.342
0.676,-0.020,0.830,-0.088,-15.234,-20.163
0.677,-0.019,0.828,-0.190,-15.206,-19.978
0.677,-0.018,0.825,-0.295,-15.167,-19.796
0.678,-0.017,0.822,-0.395,-15.120,-19.601
0.679,-0.016,0.820,-0.494,-15.067,-19.406
0.680,-0.015,0.818,-0.593,-15.021,-19.200
0.681,-0.014,0.817,-0.691,-14.967,-18.998
0.683,-0.014,0.815,-0.798,-14.924,-18.754
0.684,-0.013,0.813,-0.890,-14.879,-18.500
0.685,-0.013,0.812,-0.990,-14.829,-18.222
0.686,-0.012,0.811,-1.070,-14.766,-17.927
0.688,-0.011,0.809,-1.119,-14.668,-17.616
0.689,-0.010,0.808,-1.130,-14.539,-17.290
0.690,-0.009,0.806,-1.111,-14.382,-16.948
0.691,-0.008,0.805,-1.094,-14.201,-16.594
0.692,-0.007,0.804,-1.085,-13.997,-16.235
0.693,-0.006,0.804,-1.098,-13.786,-15.860
0.694,-0.005,0.803,-1.139,-13.561,-15.463
0.695,-0.004,0.802,-1.213,-13.327,-15.052
0.696,-0.003,0.802,-1.304,-13.073,-14.617
0.697,-0.002,0.801,-1.400,-12.798,-14.166
0.699,-0.001,0.800,-1.481,-12.492,-13.685
0.700,0.000,0.799,-1.562,-12.155,-13.191
0.701,0.001,0.798,-1.634,-11.778,-12.684
0.702,0.002,0.797,-1.701,-11.385,-12.162
0.702,0.003,0.797,-1.769,-10.984,-11.641
0.703,0.004,0.796,-1.832,-10.591,-11.110
0.704,0.005,0.795,-1.894,-10.197,-10.576
0.705,0.006,0.794,-1.949,-9.810,-10.035
0.706,0.007,0.793,-1.985,-9.411,-9.498
0.707,0.008,0.792,-1.980,-8.989,-8.962
0.708,0.010,0.791,-1.961,-8.548,-8.417
0.708,0.011,0.790,-1.957,-8.100,-7.886

0.105,-0.400,1.424,-3.061,-11.056,-9.673
0.101,-0.407,1.437,-3.959,-12.510,-11.302
0.098,-0.413,1.447,-4.554,-13.352,-12.624
0.096,-0.417,1.454,-4.960,-13.806,-13.660
0.093,-0.419,1.459,-5.172,-13.955,-14.457
0.090,-0.419,1.461,-5.282,-13.818,-14.959
0.088,-0.418,1.460,-5.265,-13.433,-15.118
0.085,-0.415,1.455,-5.089,-12.863,-15.030
0.083,-0.411,1.449,-4.774,-12.301,-14.894
0.081,-0.407,1.443,-4.432,-11.596,-14.730
0.079,-0.403,1.434,-4.034,-10.923,-14.645
0.077,-0.397,1.425,-3.619,-10.295,-14.689
0.076,-0.392,1.415,-3.242,-9.773,-14.789
0.075,-0.386,1.404,-2.948,-9.392,-14.888
0.076,-0.380,1.393,-2.718,-9.124,-15.111
0.077,-0.374,1.382,-2.636,-8.943,-15.315
0.079,-0.369,1.372,-2.660,-8.816,-15.454
0.082,-0.363,1.361,-2.713,-8.765,-15.597
0.086,-0.359,1.350,-2.829,-8.790,-15.722
0.089,-0.355,1.340,-3.035,-8.835,-15.806
0.093,-0.351,1.329,-3.231,-8.908,-15.879
0.096,-0.349,1.320,-3.456,-9.047,-15.971
0.100,-0.345,1.313,-3.673,-9.193,-16.060
0.104,-0.343,1.307,-3.881,-9.337,-16.121
0.108,-0.340,1.302,-4.082,-9.444,-16.128
0.112,-0.338,1.297,-4.253,-9.514,-16.091
0.115,-0.336,1.293,-4.345,-9.534,-16.014
0.119,-0.334,1.289,-4.345,-9.512,-15.905
0.122,-0.333,1.283,-4.232,-9.425,-15.779
0.124,-0.332,1.279,-4.048,-9.285,-15.647
0.127,-0.331,1.274,-3.849,-9.097,-15.481
0.129,-0.330,1.270,-3.653,-8.874,-15.292
0.131,-0.328,1.265,-3.437,-8.606,-15.108
0.132,-0.327,1.261,-3.230,-8.328,-14.924
0.134,-0.326,1.256,-3.093,-8.053,-14.743
0.135,-0.324,1.252,-3.056,-7.813,-14.578
0.136,-0.322,1.246,-3.120,-7.588,-14.410
0.137,-0.321,1.241,-3.212,-7.354,-14.253
0.138,-0.321,1.234,-3.252,-7.103,-14.085
0.139,-0.320,1.228,-3.233,-6.826,-13.901
0.139,-0.320,1.221,-3.161,-6.539,-13.689
0.140,-0.319,1.214,-3.003,-6.263,-13.461
0.140,-0.318,1.206,-2.770,-5.997,-13.226
0.140,-0.317,1.199,-2.487,-5.739,-12.980
0.140,-0.315,1.192,-2.207,-5.502,-12.717
0.139,-0.314,1.185,-1.949,-5.306,-12.454
0.139,-0.312,1.178,-1.723,-5.176,-12.197
0.138,-0.311,1.171,-1.535,-5.082,-11.956
0.138,-0.309,1.164,-1.373,-5.014,-11.731
0.137,-0.308,1.157,-1.246,-4.970,-11.515
0.137,-0.307,1.150,-1.152,-4.945,-11.313
0.137,-0.306,1.143,-1.104,-4.959,-11.122
0.136,-0.304,1.136,-1.093,-4.981,-10.940
0.136,-0.303,1.129,-1.096,-5.001,-10.767
0.136,-0.303,1.122,-1.093,-5.006,-10.597
0.137,-0.302,1.116,-1.075,-5.001,-10.423
0.137,-0.301,1.111,-1.055,-4.995,-10.239
0.137,-0.300,1.106,-1.040,-4.996,-10.064
0.137,-0.300,1.101,-1.033,-5.014,-9.897
0.137,-0.299,1.096,-1.035,-5.040,-9.745
0.137,-0.298,1.091,-1.084,-5.076,-9.605
0.137,-0.297,1.086,-1.198,-5.136,-9.479
0.137,-0.296,1.082,-1.366,-5.211,-9.363
0.137,-0.295,1.077,-1.562,-5.296,-9.260
0.137,-0.294,1.073,-1.732,-5.380,-9.174
0.137,-0.293,1.068,-1.838,-5.450,-9.095
0.138,-0.293,1.064,-1.874,-5.506,-9.010
0.138,-0.292,1.061,-1.863,-5.553,-8.927
0.138,-0.291,1.057,-1.832,-5.603,-8.863
0.138,-0.290,1.054,-1.767,-5.655,-8.815
0.139,-0.289,1.051,-1.714,-5.703,-8.777
0.139,-0.288,1.048,-1.717,-5.744,-8.732
0.140,-0.287,1.046,-1.784,-5.783,-8.685
0.141,-0.286,1.045,-1.929,-5.831,-8.638
0.141,-0.285,1.043,-2.112,-5.884,-8.591
0.142,-0.285,1.041,-2.308,-5.941,-8.550
0.143,-0.285,1.039,-2.487,-5.988,-8.512
0.143,-0.285,1.037,-2.613,-6.024,-8.467
0.144,-0.285,1.035,-2.669,-6.041,-8.407
0.145,-0.285,1.034,-2.654,-6.042,-8.335
0.146,-0.284,1.032,-2.590,-6.038,-8.258
0.147,-0.284,1.031,-2.528,-6.022,-8.167
0.148,-0.283,1.029,-2.503,-5.991,-8.064
0.148,-0.282,1.029,-2.551,-5.955,-7.958
0.149,-0.281,1.028,-2.690,-5.915,-7.864
0.150,-0.281,1.028,-2.881,-5.879,-7.774
0.151,-0.281,1.027,-3.126,-5.840,-7.692
0.152,-0.281,1.027,-3.406,-5.798,-7.609
0.153,-0.281,1.026,-3.711,-5.756,-7.528
0.154,-0.281,1.025,-4.007,-5.720,-7.440
0.155,-0.282,1.024,-4.295,-5.676,-7.344
0.156,-0.282,1.022,-4.535,-5.619,-7.239
0.157,-0.283,1.020,-4.725,-5.539,-7.129
0.158,-0.283,1.019,-4.900,-5.427,-7.003
0.159,-0.283,1.018,-5.090,-5.314,-6.857
0.159,-0.284,1.017,-5.313,-5.213,-6.707
0.160,-0.284,1.017,-5.554,-5.138,-6.559
0.161,-0.285,1.017,-5.809,-5.084,-6.415
0.161,-0.285,1.016,-6.100,-5.040,-6.269
0.162,-0.286,1.015,-6.388,-4.987,-6.113
0.163,-0.287,1.014,-6.612,-4.926,-5.949
0.163,-0.288,1.012,-6.741,-4.845,-5.780
0.164,-0.288,1.011,-6.773,-4.754,-5.590
0.165,-0.289,1.009,-6.772,-4.658,-5.392
0.165,-0.288,1.007,-6.760,-4.558,-5.189
0.166,-0.288,1.006,-6.745,-4.462,-4.991
0.166,-0.288,1.004,-6.734,-4.376,-4.801
0.166,-0.287,1.003,-6.730,-4.308,-4.630
0.167,-0.287,1.002,-6.744,-4.261,-4.474
0.167,-0.287,1.001,-6.767,-4.235,-4.332
0.168,-0.287,1.001,-6.770,-4.217,-4.194
0.168,-0.287,1.000,-6.725,-4.206,-4.059
0.169,-0.287,0.999,-6.643,-4.216,-3.924
0.169,-0.288,0.998,-6.541,-4.231,-3.797
0.170,-0.288,0.997,-6.404,-4.241,-3.679
0.171,-0.288,0.996,-6.251,-4.242,-3.570
0.171,-0.288,0.996,-6.104,-4.246,-3.470
0.172,-0.288,0.995,-5.981,-4.245,-3.374
0.173,-0.288,0.995,-5.873,-4.236,-3.289

0.074,-0.425,1.432,-5.876,-6.666,-4.389
0.080,-0.428,1.440,-5.852,-8.634,-5.149
0.086,-0.430,1.446,-5.818,-10.180,-5.639
0.090,-0.429,1.449,-5.831,-11.354,-6.030
0.095,-0.428,1.450,-5.900,-12.113,-6.330
0.099,-0.428,1.449,-6.000,-12.628,-6.530
0.103,-0.427,1.447,-6.092,-12.963,-6.636
0.106,-0.425,1.444,-6.150,-13.185,-6.692
0.109,-0.424,1.439,-6.161,-13.287,-6.717
0.112,-0.422,1.431,-6.106,-13.307,-6.725
0.114,-0.419,1.423,-5.979,-13.275,-6.725
0.117,-0.416,1.413,-5.810,-13.218,-6.719
0.119,-0.413,1.403,-5.594,-13.155,-6.724
0.121,-0.410,1.391,-5.351,-13.107,-6.747
0.122,-0.407,1.379,-5.068,-13.086,-6.776
0.124,-0.403,1.367,-4.815,-13.105,-6.840
0.126,-0.399,1.355,-4.656,-13.161,-6.912
0.129,-0.395,1.343,-4.657,-13.254,-6.942
0.133,-0.391,1.330,-4.722,-13.379,-6.940
0.137,-0.388,1.316,-4.771,-13.532,-6.909
0.141,-0.385,1.303,-4.757,-13.700,-6.858
0.145,-0.382,1.291,-4.687,-13.892,-6.782
0.149,-0.380,1.279,-4.591,-14.156,-6.690
0.152,-0.378,1.267,-4.459,-14.463,-6.579
0.156,-0.375,1.255,-4.276,-14.809,-6.476
0.159,-0.373,1.244,-4.045,-15.189,-6.405
0.162,-0.370,1.234,-3.796,-15.598,-6.352
0.165,-0.367,1.225,-3.582,-16.039,-6.323
0.168,-0.365,1.216,-3.464,-16.522,-6.332
0.171,-0.363,1.209,-3.448,-17.033,-6.353
0.173,-0.361,1.201,-3.507,-17.543,-6.393
0.177,-0.359,1.193,-3.628,-18.037,-6.442
0.180,-0.358,1.185,-3.786,-18.475,-6.485
0.183,-0.356,1.177,-3.929,-18.825,-6.510
0.187,-0.355,1.169,-4.028,-19.068,-6.516
