aX,aY,aZ,gX,gY,gZ
0.211,-1.229,-0.495,-44.590,-40.320,79.870
0.220,-1.232,-0.502,-44.508,-40.864,80.243
0.228,-1.232,-0.511,-44.500,-42.411,80.896
0.234,-1.230,-0.521,-44.752,-44.691,81.681
0.239,-1.223,-0.533,-45.597,-47.756,82.457
0.243,-1.219,-0.545,-46.871,-51.670,83.041
0.247,-1.214,-0.557,-48.727,-56.584,83.481
0.249,-1.209,-0.567,-51.159,-62.332,83.793
0.248,-1.204,-0.577,-53.853,-68.764,83.935
0.246,-1.200,-0.586,-56.610,-75.702,84.076
0.243,-1.195,-0.593,-58.922,-83.317,84.240
0.239,-1.190,-0.599,-60.680,-91.868,84.488
0.234,-1.185,-0.603,-62.043,-100.650,84.881
0.228,-1.178,-0.608,-62.817,-109.488,85.452
0.220,-1.171,-0.611,-63.066,-118.377,86.091
0.211,-1.163,-0.613,-62.911,-127.242,86.716
0.201,-1.154,-0.615,-62.523,-135.586,87.378
0.190,-1.144,-0.615,-61.857,-143.356,88.139
0.179,-1.133,-0.614,-60.607,-150.705,88.897
0.167,-1.122,-0.611,-58.931,-157.479,89.646
0.155,-1.109,-0.609,-56.818,-163.150,90.510
0.143,-1.096,-0.608,-54.084,-167.849,91.500
0.131,-1.085,-0.606,-50.777,-171.513,92.571
0.118,-1.073,-0.604,-47.367,-174.328,93.835
0.105,-1.061,-0.599,-43.954,-177.467,95.549
0.097,-1.047,-0.590,-41.058,-180.088,97.243
0.076,-1.033,-0.574,-38.536,-183.700,98.869
0.052,-1.016,-0.555,-36.625,-188.951,100.406
0.030,-0.999,-0.531,-35.397,-195.644,101.885
0.011,-0.977,-0.498,-35.081,-203.403,103.815
-0.013,-0.950,-0.457,-35.511,-211.613,106.185
-0.040,-0.921,-0.412,-37.483,-219.867,108.212
-0.067,-0.889,-0.364,-40.316,-227.324,109.969
-0.095,-0.855,-0.314,-43.796,-233.715,111.233
-0.122,-0.823,-0.264,-47.363,-238.205,111.122
-0.146,-0.790,-0.214,-50.422,-240.607,110.224
-0.161,-0.755,-0.172,-53.319,-239.125,107.770
-0.175,-0.722,-0.137,-55.877,-234.561,101.721
-0.182,-0.698,-0.101,-58.086,-228.928,93.892
-0.187,-0.684,-0.073,-59.135,-219.095,83.989
-0.193,-0.679,-0.049,-58.798,-201.618,72.878
-0.203,-0.680,-0.027,-56.286,-178.832,61.935
-0.215,-0.688,-0.007,-51.679,-154.536,52.640
-0.229,-0.702,0.008,-45.372,-132.868,45.375
-0.245,-0.717,0.015,-37.987,-114.230,40.570
-0.261,-0.731,0.016,-30.585,-98.217,38.068
-0.278,-0.741,0.013,-24.239,-85.108,36.827
-0.298,-0.746,0.006,-19.552,-75.270,36.284
-0.317,-0.748,-0.002,-17.193,-67.547,35.544
-0.335,-0.742,-0.012,-16.538,-60.879,34.730
-0.357,-0.736,-0.024,-16.838,-55.791,33.169
-0.376,-0.732,-0.035,-17.323,-51.573,30.461
-0.398,-0.726,-0.044,-17.835,-48.419,27.344
-0.419,-0.722,-0.049,-18.106,-45.972,24.078
-0.434,-0.720,-0.051,-17.787,-43.376,21.029
-0.447,-0.717,-0.050,-16.274,-40.140,18.589
-0.458,-0.714,-0.047,-13.772,-36.095,16.741
-0.467,-0.710,-0.044,-10.411,-31.027,15.278
-0.477,-0.705,-0.042,-6.720,-25.741,14.153
-0.486,-0.699,-0.040,-3.148,-20.912,13.354
-0.495,-0.694,-0.039,-0.127,-16.912,12.761
-0.506,-0.687,-0.041,2.129,-14.702,12.464
-0.519,-0.681,-0.043,3.330,-13.929,12.284
-0.530,-0.677,-0.046,4.035,-14.063,12.148
-0.539,-0.673,-0.048,4.347,-14.568,12.143
-0.547,-0.670,-0.051,4.473,-15.211,12.252
-0.554,-0.668,-0.052,4.583,-15.785,12.393
-0.561,-0.667,-0.053,4.705,-16.176,12.515
-0.568,-0.664,-0.053,4.879,-16.289,12.607
-0.574,-0.662,-0.054,5.149,-15.993,12.654
-0.580,-0.659,-0.055,5.491,-15.453,12.671
-0.587,-0.656,-0.057,5.825,-14.756,12.632
-0.594,-0.653,-0.059,6.095,-14.027,12.547
-0.601,-0.648,-0.061,6.213,-13.318,12.370
-0.608,-0.644,-0.063,6.177,-12.667,12.076
-0.615,-0.639,-0.065,5.977,-12.057,11.567
-0.622,-0.635,-0.067,5.604,-11.452,10.876
-0.629,-0.631,-0.068,5.174,-10.791,10.005
-0.635,-0.628,-0.069,4.773,-9.948,9.040
-0.640,-0.626,-0.070,4.457,-8.921,8.086
-0.645,-0.625,-0.070,4.314,-7.717,7.241
-0.650,-0.624,-0.070,4.324,-6.441,6.556
-0.655,-0.623,-0.070,4.418,-5.196,6.039
-0.661,-0.622,-0.071,4.591,-4.123,5.654
-0.666,-0.621,-0.072,4.804,-3.277,5.427
-0.671,-0.620,-0.073,5.017,-2.676,5.294
-0.676,-0.618,-0.074,5.180,-2.268,5.245
-0.680,-0.617,-0.075,5.280,-2.112,5.242
-0.685,-0.615,-0.076,5.293,-2.107,5.252
-0.689,-0.614,-0.076,5.206,-2.229,5.265
-0.693,-0.613,-0.076,5.076,-2.447,5.261
-0.696,-0.612,-0.076,4.925,-2.726,5.247
-0.700,-0.612,-0.075,4.783,-3.005,5.241
-0.703,-0.611,-0.075,4.697,-3.264,5.248
-0.706,-0.610,-0.073,4.669,-3.490,5.261
-0.710,-0.610,-0.072,4.704,-3.641,5.257
-0.713,-0.609,-0.071,4.794,-3.716,5.250
-0.716,-0.607,-0.070,4.927,-3.742,5.224
-0.719,-0.605,-0.068,5.011,-3.690,5.081
-0.722,-0.604,-0.067,5.062,-3.533,4.887
-0.724,-0.602,-0.067,5.095,-3.243,4.639
-0.727,-0.600,-0.066,5.071,-2.831,4.322
-0.730,-0.599,-0.066,4.987,-2.303,3.920
-0.732,-0.598,-0.065,4.891,-1.714,3.483
-0.734,-0.597,-0.064,4.756,-1.097,3.024
-0.736,-0.597,-0.064,4.574,-0.401,2.552
-0.738,-0.597,-0.064,4.361,0.301,2.088
-0.740,-0.596,-0.064,4.174,0.973,1.622
-0.742,-0.596,-0.065,3.983,1.639,1.154
-0.745,-0.596,-0.065,3.823,2.276,0.702
-0.746,-0.596,-0.066,3.767,2.871,0.274
-0.749,-0.595,-0.067,3.866,3.408,-0.118
-0.751,-0.595,-0.067,4.062,3.902,-0.483
-0.753,-0.594,-0.067,4.359,4.397,-0.829
-0.754,-0.593,-0.067,4.736,4.896,-1.132
-0.756,-0.592,-0.066,5.169,5.384,-1.449
-0.758,-0.590,-0.065,5.652,5.828,-1.812
-0.759,-0.589,-0.063,6.175,6.246,-2.204
-0.761,-0.587,-0.061,6.759,6.645,-2.682

0.199,-1.098,-0.641,6.884,4.796,-1.198
0.211,-1.099,-0.642,6.587,1.401,0.501
0.224,-1.101,-0.643,5.958,-2.535,2.294
0.237,-1.103,-0.645,5.115,-6.497,4.119
0.250,-1.105,-0.648,4.081,-10.112,6.183
0.263,-1.107,-0.654,2.976,-13.377,8.420
0.275,-1.109,-0.662,1.702,-16.586,10.753
0.286,-1.109,-0.672,0.048,-20.155,13.292
0.296,-1.110,-0.682,-2.011,-24.595,16.093
0.305,-1.112,-0.691,-4.392,-30.241,19.219
0.314,-1.113,-0.698,-6.890,-37.171,22.655
0.323,-1.113,-0.704,-9.590,-45.447,26.596
0.330,-1.112,-0.709,-12.282,-54.138,30.908
0.335,-1.110,-0.712,-15.001,-63.082,35.354
0.337,-1.106,-0.713,-18.069,-72.050,39.650
0.337,-1.101,-0.714,-21.316,-81.125,43.494
0.335,-1.096,-0.712,-24.583,-90.707,46.652
0.332,-1.092,-0.710,-27.562,-100.312,49.166
0.328,-1.088,-0.705,-29.904,-109.693,51.431
0.323,-1.085,-0.699,-31.468,-118.575,53.631
0.316,-1.082,-0.692,-32.275,-126.724,55.992
0.307,-1.076,-0.684,-32.441,-134.119,58.819
0.296,-1.069,-0.676,-31.927,-140.741,61.866
0.284,-1.061,-0.667,-31.017,-146.784,65.044
0.270,-1.052,-0.656,-29.698,-152.487,68.302
0.253,-1.041,-0.642,-27.706,-158.153,71.468
0.232,-1.029,-0.624,-24.106,-164.156,74.522
0.208,-1.017,-0.602,-19.488,-170.426,77.342
0.182,-1.006,-0.577,-14.525,-176.101,80.309
0.155,-0.994,-0.545,-9.863,-180.827,83.522
0.126,-0.981,-0.512,-6.093,-184.516,86.929
0.096,-0.964,-0.474,-4.235,-187.207,90.591
0.065,-0.941,-0.434,-3.916,-188.802,94.451
0.033,-0.914,-0.395,-4.580,-189.317,98.031
-0.000,-0.884,-0.360,-5.927,-189.262,100.601
-0.033,-0.854,-0.330,-8.600,-188.964,101.335
-0.064,-0.825,-0.300,-12.457,-188.825,101.102
-0.094,-0.794,-0.265,-18.659,-189.029,100.183
-0.122,-0.766,-0.230,-27.724,-188.999,97.950
-0.145,-0.743,-0.195,-38.538,-188.287,93.533
-0.164,-0.724,-0.158,-48.681,-186.385,87.894
-0.181,-0.711,-0.123,-56.684,-182.999,81.203
-0.198,-0.703,-0.089,-59.725,-179.321,72.805
-0.215,-0.705,-0.057,-60.173,-174.575,63.010
-0.231,-0.711,-0.032,-59.071,-164.513,52.989
-0.244,-0.715,-0.009,-56.272,-151.114,44.156
-0.257,-0.716,0.010,-51.604,-135.285,37.843
-0.271,-0.719,0.023,-46.373,-118.414,32.912
-0.287,-0.724,0.029,-41.007,-102.817,29.059
-0.302,-0.730,0.029,-35.614,-89.388,26.036
-0.315,-0.736,0.024,-30.665,-77.871,23.306
-0.326,-0.741,0.017,-26.187,-67.498,20.900
-0.339,-0.745,0.008,-22.831,-58.762,18.522
-0.351,-0.747,-0.002,-20.456,-51.189,15.932
-0.363,-0.748,-0.012,-18.929,-44.562,13.098
-0.376,-0.747,-0.023,-18.112,-38.560,10.415
-0.388,-0.745,-0.033,-17.527,-32.948,8.146
-0.401,-0.744,-0.042,-16.970,-27.725,6.485
-0.413,-0.744,-0.050,-16.186,-23.075,5.611
-0.425,-0.744,-0.057,-15.042,-18.848,5.262
-0.436,-0.743,-0.064,-13.368,-16.571,5.425
-0.448,-0.742,-0.070,-11.257,-15.560,5.953
-0.459,-0.740,-0.074,-8.701,-15.427,6.775
-0.469,-0.736,-0.077,-5.989,-15.794,7.692
-0.478,-0.732,-0.075,-3.239,-16.441,8.618
-0.486,-0.727,-0.075,-0.638,-17.101,9.461
-0.493,-0.722,-0.076,1.406,-17.684,10.130
-0.499,-0.716,-0.076,2.973,-18.140,10.646
-0.505,-0.711,-0.077,4.037,-18.424,11.007
-0.510,-0.707,-0.078,4.692,-18.431,11.205
-0.516,-0.703,-0.080,5.019,-18.245,11.251
-0.521,-0.700,-0.082,5.001,-17.921,11.215
-0.527,-0.697,-0.084,4.808,-17.531,11.088
-0.533,-0.694,-0.087,4.509,-17.105,10.869
-0.539,-0.692,-0.089,4.187,-16.678,10.543
-0.545,-0.691,-0.090,3.950,-16.267,10.090
-0.551,-0.689,-0.090,3.845,-15.866,9.564
-0.556,-0.688,-0.090,3.864,-15.325,9.035
-0.561,-0.686,-0.088,4.026,-14.572,8.488
-0.567,-0.684,-0.086,4.301,-13.522,7.895
-0.571,-0.683,-0.085,4.586,-12.102,7.247
-0.576,-0.683,-0.084,4.835,-10.344,6.598
-0.580,-0.682,-0.084,5.004,-8.363,5.913
-0.586,-0.681,-0.085,5.019,-6.436,5.173
-0.592,-0.681,-0.086,4.869,-4.716,4.393
-0.597,-0.680,-0.088,4.613,-3.284,3.634
-0.603,-0.679,-0.090,4.285,-2.268,2.936
-0.609,-0.679,-0.092,3.924,-1.546,2.331
-0.615,-0.678,-0.094,3.564,-1.060,1.811
-0.621,-0.678,-0.095,3.256,-0.749,1.366
-0.626,-0.678,-0.096,3.061,-0.587,1.029
-0.631,-0.677,-0.096,2.991,-0.567,0.783
-0.635,-0.677,-0.095,3.051,-0.580,0.638
-0.639,-0.677,-0.095,3.308,-0.593,0.621
-0.643,-0.677,-0.094,3.678,-0.589,0.693
-0.647,-0.677,-0.094,4.113,-0.602,0.876
-0.650,-0.677,-0.094,4.567,-0.670,1.121
-0.653,-0.677,-0.094,4.983,-0.820,1.397
-0.657,-0.677,-0.094,5.342,-1.084,1.676
-0.660,-0.677,-0.093,5.619,-1.468,1.949
-0.664,-0.677,-0.092,5.822,-1.974,2.197
-0.667,-0.677,-0.090,6.031,-2.523,2.406
-0.670,-0.677,-0.087,6.373,-3.059,2.588
-0.674,-0.677,-0.084,6.852,-3.527,2.777
-0.676,-0.677,-0.081,7.504,-3.877,2.966
-0.679,-0.676,-0.077,8.324,-4.099,3.141
-0.682,-0.676,-0.073,9.303,-4.172,3.264
-0.685,-0.674,-0.069,10.408,-4.085,3.320
-0.688,-0.672,-0.065,11.540,-3.841,3.302
-0.691,-0.670,-0.061,12.672,-3.464,3.197
-0.695,-0.666,-0.057,13.703,-3.042,3.018
-0.698,-0.662,-0.053,14.487,-2.588,2.667
-0.702,-0.658,-0.049,15.090,-2.115,2.148
-0.705,-0.654,-0.045,15.537,-1.634,1.465
-0.709,-0.650,-0.040,15.857,-1.164,0.608
-0.712,-0.646,-0.034,16.079,-0.678,-0.433
-0.716,-0.643,-0.028,16.264,-0.120,-1.718
-0.719,-0.641,-0.022,16.453,0.583,-3.139
-0.722,-0.638,-0.016,16.712,1.625,-4.662

0.271,-1.132,-0.533,12.462,-1.713,-2.842
0.283,-1.139,-0.540,8.064,-5.368,-1.003
0.296,-1.145,-0.549,3.949,-9.350,1.313
0.308,-1.152,-0.558,0.047,-13.802,4.152
0.321,-1.158,-0.566,-3.590,-18.775,7.827
0.332,-1.162,-0.572,-6.919,-24.545,12.074
0.337,-1.164,-0.579,-10.013,-31.430,16.964
0.344,-1.163,-0.584,-12.943,-38.972,22.475
0.347,-1.159,-0.589,-15.854,-47.079,27.927
0.349,-1.152,-0.593,-18.986,-55.548,33.156
0.349,-1.146,-0.597,-22.374,-64.260,37.951
0.347,-1.141,-0.601,-26.112,-72.973,42.133
0.344,-1.137,-0.604,-30.649,-81.293,45.769
0.340,-1.134,-0.607,-35.656,-89.408,49.029
0.336,-1.132,-0.610,-40.645,-97.657,51.960
0.330,-1.131,-0.609,-45.102,-106.294,54.657
0.323,-1.131,-0.608,-48.750,-114.849,57.397
0.313,-1.129,-0.603,-50.776,-123.311,60.282
0.301,-1.127,-0.596,-51.778,-131.572,63.350
0.287,-1.124,-0.588,-52.039,-139.231,66.659
0.271,-1.119,-0.577,-51.758,-146.343,70.196
0.253,-1.113,-0.562,-50.981,-152.943,73.554
0.234,-1.108,-0.548,-49.550,-158.477,76.790
0.215,-1.103,-0.531,-47.417,-163.414,79.876
0.194,-1.098,-0.511,-44.634,-167.390,82.855
0.173,-1.093,-0.489,-41.274,-170.475,86.014
0.150,-1.085,-0.466,-37.597,-172.700,89.413
0.126,-1.074,-0.441,-34.353,-173.968,92.929
0.101,-1.058,-0.415,-31.889,-174.446,96.396
0.073,-1.039,-0.388,-30.361,-174.700,99.474
0.044,-1.017,-0.362,-29.804,-174.896,101.570
0.014,-0.992,-0.337,-29.973,-175.042,102.906
-0.015,-0.967,-0.315,-30.617,-175.116,103.618
-0.041,-0.940,-0.290,-31.696,-174.967,103.865
-0.064,-0.913,-0.266,-33.284,-174.095,103.676
-0.095,-0.884,-0.242,-35.330,-173.496,103.068
-0.123,-0.856,-0.219,-37.598,-172.959,102.041
-0.148,-0.826,-0.193,-40.505,-172.180,100.373
-0.172,-0.795,-0.167,-44.317,-170.994,97.687
-0.193,-0.767,-0.140,-48.800,-169.278,93.795
-0.211,-0.745,-0.118,-52.389,-166.447,88.722
-0.222,-0.729,-0.097,-54.272,-163.346,83.025
-0.231,-0.720,-0.076,-54.583,-157.732,76.896
-0.242,-0.717,-0.059,-54.193,-147.948,70.562
-0.254,-0.720,-0.048,-52.551,-133.313,64.107
-0.266,-0.726,-0.039,-49.169,-118.468,57.946
-0.279,-0.733,-0.033,-44.436,-105.128,53.159
-0.293,-0.739,-0.032,-39.331,-94.335,49.608
-0.308,-0.744,-0.035,-33.901,-85.860,47.031
-0.324,-0.749,-0.041,-26.211,-79.052,45.282
-0.340,-0.751,-0.049,-19.894,-73.368,43.837
-0.355,-0.749,-0.057,-14.160,-68.445,42.429
-0.369,-0.743,-0.065,-9.781,-63.935,40.774
-0.384,-0.735,-0.073,-7.440,-59.710,38.452
-0.398,-0.726,-0.081,-6.341,-55.844,35.687
-0.412,-0.719,-0.087,-6.055,-52.489,32.669
-0.425,-0.714,-0.093,-6.186,-49.485,29.730
-0.437,-0.710,-0.098,-6.517,-46.701,27.131
-0.448,-0.708,-0.103,-6.791,-44.023,24.978
-0.457,-0.708,-0.106,-6.837,-41.600,23.371
-0.467,-0.708,-0.108,-6.582,-39.448,22.315
-0.476,-0.709,-0.109,-5.856,-37.592,21.925
-0.484,-0.710,-0.110,-4.819,-36.063,21.933
-0.493,-0.709,-0.110,-3.570,-35.051,22.164
-0.501,-0.707,-0.110,-2.288,-34.338,22.471
-0.509,-0.704,-0.110,-1.151,-33.818,22.740
-0.517,-0.700,-0.110,-0.305,-33.359,22.896
-0.523,-0.695,-0.110,0.203,-32.807,22.899
-0.530,-0.691,-0.110,0.405,-32.064,22.664
-0.536,-0.687,-0.111,0.372,-31.089,22.291
-0.541,-0.684,-0.112,0.264,-28.897,21.846
-0.547,-0.682,-0.114,0.101,-27.440,21.384
-0.553,-0.680,-0.117,-0.037,-25.881,20.929
-0.559,-0.679,-0.119,-0.151,-24.329,20.510
-0.565,-0.678,-0.123,-0.238,-22.837,20.167
-0.572,-0.677,-0.126,-0.273,-21.465,19.882
-0.579,-0.675,-0.129,-0.351,-20.202,19.613
-0.586,-0.672,-0.132,-0.544,-19.028,19.308
-0.592,-0.668,-0.135,-0.887,-17.942,18.899
-0.599,-0.664,-0.138,-1.375,-16.944,18.281
-0.605,-0.661,-0.141,-1.999,-16.044,17.539
-0.611,-0.658,-0.144,-2.666,-15.240,16.702
-0.617,-0.656,-0.146,-3.308,-14.556,15.861
-0.622,-0.654,-0.149,-3.851,-13.987,15.092
-0.627,-0.652,-0.150,-4.271,-13.510,14.434
-0.632,-0.651,-0.151,-4.542,-13.166,13.910
-0.636,-0.650,-0.151,-4.655,-12.930,13.501
-0.641,-0.648,-0.151,-4.599,-12.787,13.182
-0.645,-0.646,-0.150,-4.457,-12.696,12.904
-0.649,-0.644,-0.148,-4.254,-12.627,12.625
-0.653,-0.641,-0.147,-4.053,-12.527,12.277
-0.656,-0.639,-0.145,-3.902,-12.337,11.868
-0.659,-0.637,-0.145,-3.773,-11.987,11.380
-0.662,-0.636,-0.144,-3.656,-11.496,10.864
-0.665,-0.635,-0.145,-3.483,-10.896,10.319
-0.668,-0.635,-0.145,-3.264,-10.216,9.789
-0.671,-0.634,-0.146,-3.035,-9.446,9.291
-0.674,-0.634,-0.147,-2.793,-8.659,8.847
-0.678,-0.633,-0.148,-2.562,-7.902,8.434
-0.681,-0.633,-0.149,-2.346,-7.233,8.064
-0.685,-0.632,-0.150,-2.159,-6.647,7.728
-0.689,-0.631,-0.150,-2.062,-6.139,7.384
-0.693,-0.630,-0.150,-2.044,-5.708,7.045
-0.697,-0.628,-0.151,-2.097,-5.387,6.685
-0.701,-0.626,-0.150,-2.198,-5.162,6.295
-0.705,-0.624,-0.150,-2.351,-5.024,5.843
-0.708,-0.623,-0.149,-2.512,-4.972,5.354
-0.712,-0.621,-0.148,-2.652,-5.031,4.806
-0.716,-0.620,-0.146,-2.763,-5.127,4.224
-0.719,-0.619,-0.144,-2.735,-5.207,3.659
-0.722,-0.619,-0.142,-2.556,-5.242,3.164
-0.724,-0.619,-0.139,-2.200,-5.187,2.729
-0.728,-0.618,-0.136,-1.698,-5.043,2.345
-0.731,-0.617,-0.132,-1.100,-4.803,1.994
-0.735,-0.616,-0.128,-0.513,-4.481,1.646
-0.740,-0.613,-0.123,0.025,-4.119,1.251
-0.745,-0.610,-0.118,0.484,-3.747,0.720
-0.750,-0.607,-0.112,0.849,-3.382,0.052
-0.755,-0.603,-0.106,1.156,-2.933,-0.767

0.285,-1.064,-0.595,-7.312,-8.350,2.753
0.295,-1.066,-0.608,-17.189,-15.689,6.174
0.304,-1.070,-0.619,-27.183,-25.317,9.671
0.315,-1.074,-0.630,-36.634,-37.376,13.516
0.328,-1.081,-0.642,-45.194,-49.769,18.349
0.342,-1.090,-0.656,-52.321,-62.164,23.966
0.356,-1.099,-0.667,-57.980,-75.032,30.167
0.369,-1.106,-0.678,-62.429,-88.917,36.945
0.380,-1.110,-0.687,-65.950,-103.167,44.013
0.389,-1.112,-0.694,-68.484,-117.535,51.143
0.393,-1.112,-0.701,-70.342,-131.518,58.057
0.395,-1.111,-0.707,-71.475,-144.820,64.826
0.394,-1.106,-0.710,-71.805,-157.489,71.344
0.389,-1.100,-0.711,-71.565,-169.340,77.538
0.381,-1.089,-0.711,-70.976,-180.066,83.457
0.370,-1.079,-0.708,-70.133,-190.093,88.754
0.352,-1.068,-0.702,-68.820,-199.374,93.532
0.334,-1.057,-0.693,-66.888,-207.774,97.955
0.314,-1.045,-0.680,-64.247,-215.623,102.096
0.292,-1.033,-0.662,-61.293,-222.902,105.946
0.270,-1.021,-0.645,-58.636,-228.924,109.607
0.249,-1.006,-0.624,-56.106,-233.952,113.043
0.226,-0.991,-0.601,-53.994,-238.254,116.064
0.203,-0.969,-0.579,-52.484,-241.515,118.547
0.180,-0.946,-0.558,-51.583,-243.630,120.700
0.154,-0.921,-0.537,-51.313,-244.952,122.437
0.129,-0.895,-0.515,-51.887,-245.472,123.458
0.096,-0.864,-0.491,-53.479,-246.494,123.534
0.060,-0.837,-0.464,-56.559,-248.839,122.875
0.023,-0.814,-0.434,-60.105,-252.413,121.857
-0.014,-0.793,-0.398,-63.564,-257.761,120.796
-0.048,-0.775,-0.354,-66.305,-264.457,119.806
-0.081,-0.755,-0.298,-67.250,-272.559,118.989
-0.114,-0.728,-0.221,-67.233,-282.223,118.250
-0.140,-0.691,-0.116,-68.146,-288.648,117.192
-0.153,-0.646,-0.038,-69.122,-286.083,115.342
-0.147,-0.609,0.013,-68.472,-279.812,110.849
-0.137,-0.580,0.046,-66.863,-236.134,104.208
-0.139,-0.563,0.063,-64.520,-180.520,97.938
-0.153,-0.563,0.065,-55.152,-127.840,90.791
-0.172,-0.574,0.058,-40.889,-82.728,82.427
-0.193,-0.581,0.047,-25.872,-47.087,74.566
-0.213,-0.582,0.031,-13.756,-18.728,68.737
-0.234,-0.586,0.012,-5.028,0.564,65.140
-0.263,-0.587,-0.004,0.596,8.688,62.424
-0.295,-0.582,-0.022,3.128,11.159,60.045
-0.326,-0.575,-0.039,3.291,10.870,57.350
-0.352,-0.567,-0.055,2.062,9.544,53.504
-0.376,-0.560,-0.067,-0.408,7.643,48.878
-0.399,-0.553,-0.077,-3.921,5.044,43.987
-0.418,-0.547,-0.082,-7.714,2.762,39.405
-0.434,-0.543,-0.083,-11.020,1.439,35.380
-0.447,-0.543,-0.081,-12.764,0.830,32.425
-0.458,-0.545,-0.076,-13.344,1.665,30.579
-0.468,-0.548,-0.070,-13.057,4.116,29.968
-0.480,-0.549,-0.065,-11.451,6.880,30.133
-0.494,-0.549,-0.060,-7.865,8.740,30.737
-0.510,-0.542,-0.056,-3.949,9.489,31.390
-0.525,-0.532,-0.054,-0.448,9.304,31.871
-0.538,-0.522,-0.053,2.189,8.887,31.993
-0.550,-0.510,-0.053,3.625,8.484,31.447
-0.560,-0.500,-0.056,4.404,8.271,30.420
-0.569,-0.492,-0.060,4.739,8.335,29.061
-0.579,-0.486,-0.065,4.787,8.464,27.540
-0.589,-0.482,-0.071,4.658,8.473,26.000
-0.598,-0.480,-0.077,4.475,8.194,24.588
-0.608,-0.478,-0.083,4.281,7.506,23.347
-0.618,-0.477,-0.087,4.151,6.618,22.290
-0.627,-0.476,-0.090,4.132,5.617,21.415
-0.636,-0.474,-0.091,4.179,4.628,20.687
-0.645,-0.470,-0.091,4.193,3.741,20.005
-0.653,-0.466,-0.091,4.101,3.083,19.299
-0.661,-0.462,-0.089,3.888,2.648,18.454
-0.670,-0.457,-0.088,3.488,2.443,17.361
-0.678,-0.452,-0.086,3.001,2.507,16.142
-0.685,-0.449,-0.085,2.494,2.888,14.872
-0.692,-0.448,-0.085,2.048,3.635,13.656
-0.698,-0.447,-0.084,1.736,4.537,12.555
-0.705,-0.447,-0.084,1.701,5.470,11.660
-0.712,-0.446,-0.085,1.895,6.336,10.986
-0.718,-0.446,-0.085,2.254,7.062,10.471
-0.725,-0.445,-0.085,2.685,7.602,10.057
-0.731,-0.443,-0.086,3.141,8.025,9.706
-0.738,-0.440,-0.086,3.536,8.317,9.317
-0.744,-0.437,-0.085,3.738,8.524,8.855
-0.750,-0.433,-0.085,3.761,8.675,8.283
-0.756,-0.430,-0.084,3.618,8.788,7.604
-0.761,-0.426,-0.082,3.340,8.862,6.830
-0.767,-0.422,-0.079,2.952,8.918,5.876
-0.773,-0.418,-0.076,2.431,8.974,4.819
-0.779,-0.414,-0.073,1.828,9.083,3.656
-0.784,-0.411,-0.070,1.167,9.388,2.416
-0.788,-0.409,-0.068,0.517,9.878,1.174
-0.792,-0.407,-0.066,-0.081,10.578,-0.057
-0.795,-0.408,-0.066,-0.550,11.636,-1.239
-0.797,-0.409,-0.067,-0.844,13.175,-2.287
-0.800,-0.410,-0.069,-0.924,14.971,-3.233
-0.802,-0.412,-0.071,-0.645,16.840,-4.021
-0.805,-0.413,-0.073,-0.186,18.629,-4.746
-0.809,-0.414,-0.074,0.335,20.261,-5.418
-0.813,-0.413,-0.075,0.859,21.613,-6.106
-0.818,-0.412,-0.076,1.262,22.676,-6.890
-0.822,-0.411,-0.076,1.562,23.495,-7.787
-0.826,-0.410,-0.075,1.771,24.160,-8.794
-0.829,-0.409,-0.076,1.939,24.852,-9.954
-0.831,-0.408,-0.077,2.137,25.704,-11.195
-0.832,-0.409,-0.079,2.434,26.884,-12.440
-0.832,-0.410,-0.083,2.950,28.532,-13.655
-0.831,-0.412,-0.088,3.744,30.466,-14.833
-0.830,-0.414,-0.094,5.020,32.607,-15.911
-0.830,-0.417,-0.099,6.670,34.797,-16.922
-0.829,-0.420,-0.105,8.662,36.874,-17.855
-0.830,-0.421,-0.109,11.005,38.685,-18.713
-0.830,-0.422,-0.112,13.792,40.149,-19.564
-0.832,-0.422,-0.114,16.645,41.253,-20.448
-0.834,-0.421,-0.114,19.252,42.017,-21.378
-0.836,-0.419,-0.113,21.370,42.597,-22.406
-0.838,-0.416,-0.112,22.718,43.045,-23.809
-0.839,-0.413,-0.109,23.477,43.409,-25.553

0.357,-1.013,-0.572,16.045,27.418,-21.072
0.369,-1.019,-0.576,9.497,11.675,-15.506
0.381,-1.024,-0.583,3.559,-3.286,-9.460
0.392,-1.027,-0.595,-1.950,-17.119,-3.219
0.401,-1.030,-0.606,-7.318,-30.186,2.914
0.409,-1.032,-0.617,-13.309,-42.748,8.819
0.416,-1.032,-0.628,-19.673,-55.112,14.332
0.422,-1.033,-0.639,-26.145,-68.621,19.389
0.427,-1.034,-0.650,-32.335,-82.655,24.076
0.431,-1.036,-0.659,-36.188,-96.798,28.784
0.433,-1.039,-0.665,-39.961,-110.944,33.661
0.433,-1.042,-0.670,-42.524,-124.741,38.828
0.431,-1.044,-0.674,-44.018,-138.147,44.369
0.427,-1.045,-0.674,-44.631,-151.000,50.125
0.420,-1.046,-0.673,-44.634,-163.103,55.994
0.411,-1.043,-0.672,-44.382,-173.325,61.760
0.400,-1.039,-0.670,-43.819,-181.352,67.264
0.387,-1.034,-0.668,-43.012,-187.666,72.414
0.373,-1.027,-0.665,-42.103,-192.491,77.192
0.358,-1.020,-0.660,-41.278,-196.158,81.476
0.341,-1.011,-0.655,-40.497,-199.256,85.363
0.323,-1.001,-0.647,-39.609,-202.473,88.797
0.303,-0.993,-0.636,-38.348,-206.167,92.021
0.281,-0.983,-0.622,-36.932,-210.329,95.246
0.259,-0.974,-0.604,-35.563,-214.590,98.552
0.237,-0.962,-0.584,-34.298,-218.161,101.774
0.213,-0.948,-0.564,-33.435,-220.756,104.357
0.193,-0.931,-0.546,-32.880,-221.287,106.818
0.165,-0.909,-0.528,-32.807,-220.410,108.814
0.138,-0.886,-0.511,-33.315,-219.079,109.910
0.112,-0.862,-0.496,-35.144,-217.515,109.954
0.085,-0.837,-0.482,-38.002,-216.371,109.503
0.058,-0.814,-0.469,-41.753,-215.902,108.704
0.030,-0.791,-0.456,-45.800,-216.468,107.683
0.001,-0.772,-0.441,-50.058,-218.275,106.592
-0.027,-0.755,-0.424,-54.075,-222.748,105.472
-0.051,-0.740,-0.405,-57.434,-225.812,104.402
-0.074,-0.725,-0.381,-59.856,-228.826,103.367
-0.097,-0.711,-0.355,-61.646,-231.103,102.299
-0.118,-0.698,-0.323,-62.607,-232.384,101.191
-0.139,-0.684,-0.286,-62.902,-232.783,98.966
-0.160,-0.672,-0.248,-62.740,-231.739,97.332
-0.179,-0.661,-0.208,-62.165,-228.633,95.608
-0.197,-0.649,-0.166,-61.151,-224.420,93.715
-0.214,-0.636,-0.126,-59.510,-219.556,91.306
-0.230,-0.619,-0.094,-57.575,-215.042,88.457
-0.244,-0.602,-0.073,-55.084,-205.220,85.169
-0.257,-0.587,-0.060,-51.843,-190.432,81.462
-0.271,-0.572,-0.054,-47.550,-172.326,77.322
-0.285,-0.559,-0.054,-42.712,-152.555,73.199
-0.302,-0.547,-0.057,-37.734,-133.007,69.275
-0.320,-0.537,-0.062,-33.257,-115.702,65.510
-0.338,-0.528,-0.066,-29.520,-101.455,61.892
-0.356,-0.520,-0.069,-26.827,-91.109,58.217
-0.375,-0.513,-0.071,-25.154,-83.391,54.317
-0.393,-0.508,-0.072,-24.543,-77.582,50.107
-0.411,-0.505,-0.072,-24.320,-74.249,45.988
-0.427,-0.506,-0.073,-24.269,-70.091,42.204
-0.442,-0.507,-0.074,-24.206,-65.954,39.133
-0.456,-0.510,-0.076,-23.961,-61.695,36.676
-0.470,-0.513,-0.078,-23.455,-57.373,34.771
-0.484,-0.514,-0.081,-22.725,-53.255,33.285
-0.498,-0.513,-0.085,-21.840,-49.563,32.118
-0.512,-0.510,-0.087,-20.963,-46.466,31.026
-0.526,-0.506,-0.090,-20.172,-44.030,29.953
-0.540,-0.501,-0.092,-19.440,-42.017,28.916
-0.552,-0.497,-0.094,-18.722,-40.356,27.921
-0.564,-0.493,-0.095,-17.974,-38.873,27.020
-0.576,-0.488,-0.094,-17.145,-37.528,26.221
-0.586,-0.485,-0.094,-16.291,-36.195,25.503
-0.596,-0.481,-0.093,-15.379,-34.880,24.861
-0.606,-0.479,-0.092,-14.474,-33.647,24.249
-0.615,-0.476,-0.092,-13.619,-32.432,23.675
-0.624,-0.473,-0.093,-12.809,-31.270,23.100
-0.633,-0.470,-0.094,-12.095,-30.155,22.497
-0.642,-0.466,-0.095,-11.503,-29.071,21.842
-0.650,-0.464,-0.097,-11.052,-28.025,21.102
-0.659,-0.461,-0.099,-10.721,-27.074,20.305
-0.667,-0.459,-0.102,-10.464,-26.122,19.486
-0.674,-0.458,-0.104,-10.195,-25.152,18.719
-0.682,-0.456,-0.107,-9.910,-24.198,17.977
-0.689,-0.455,-0.109,-9.585,-23.240,17.284
-0.696,-0.453,-0.111,-9.249,-22.288,16.614
-0.703,-0.451,-0.113,-8.899,-21.358,15.975
-0.709,-0.448,-0.114,-8.597,-20.464,15.296
-0.716,-0.446,-0.116,-8.336,-19.560,14.582
-0.721,-0.444,-0.117,-8.109,-18.670,13.866
-0.727,-0.442,-0.118,-7.897,-17.818,13.150
-0.733,-0.441,-0.119,-7.690,-16.994,12.468
-0.738,-0.440,-0.120,-7.462,-16.209,11.826
-0.742,-0.439,-0.121,-7.215,-15.469,11.247
-0.747,-0.438,-0.122,-6.909,-14.802,10.785
-0.751,-0.437,-0.123,-6.560,-14.261,10.391
-0.755,-0.436,-0.123,-6.176,-13.794,10.047
-0.759,-0.434,-0.123,-5.831,-13.355,9.744
-0.763,-0.432,-0.123,-5.583,-12.940,9.447
-0.767,-0.430,-0.123,-5.434,-12.535,9.106
-0.771,-0.428,-0.124,-5.358,-12.123,8.722
-0.775,-0.426,-0.124,-5.361,-11.733,8.306
-0.779,-0.424,-0.125,-5.406,-11.389,7.866
-0.783,-0.423,-0.125,-5.484,-11.108,7.402
-0.787,-0.421,-0.124,-5.591,-10.851,6.922
-0.790,-0.419,-0.123,-5.692,-10.603,6.406
-0.794,-0.418,-0.122,-5.767,-10.374,5.863
-0.798,-0.416,-0.120,-5.785,-10.151,5.296
-0.801,-0.415,-0.117,-5.677,-9.908,4.711
-0.804,-0.413,-0.113,-5.438,-9.608,4.097
-0.808,-0.412,-0.108,-5.029,-9.166,3.415
-0.811,-0.409,-0.102,-4.480,-8.587,2.610
-0.815,-0.406,-0.096,-3.830,-7.838,1.687
-0.818,-0.402,-0.089,-3.122,-6.763,0.608
-0.820,-0.400,-0.083,-2.283,-5.412,-0.627
-0.822,-0.398,-0.076,-1.108,-3.721,-2.012
-0.824,-0.397,-0.070,0.325,-1.585,-3.456
-0.825,-0.396,-0.066,2.100,1.438,-4.869
-0.826,-0.396,-0.063,4.196,5.001,-6.283
-0.827,-0.396,-0.060,6.647,8.956,-7.724
-0.829,-0.396,-0.058,9.286,13.186,-9.216
-0.830,-0.397,-0.058,12.035,17.788,-10.693

0.271,-1.153,-0.499,10.505,14.237,-8.075
0.277,-1.157,-0.502,8.805,10.466,-5.146
0.282,-1.159,-0.506,6.763,6.438,-1.999
0.287,-1.162,-0.510,4.006,1.931,1.353
0.291,-1.164,-0.515,0.743,-3.245,4.879
0.297,-1.166,-0.521,-2.882,-9.483,8.703
0.302,-1.169,-0.525,-6.615,-16.345,12.919
0.306,-1.172,-0.530,-10.334,-23.387,17.839
0.310,-1.175,-0.535,-13.941,-30.282,23.350
0.314,-1.178,-0.542,-17.382,-37.173,29.375
0.317,-1.179,-0.547,-20.610,-44.362,35.781
0.316,-1.178,-0.552,-23.737,-51.823,42.721
0.315,-1.176,-0.557,-26.829,-59.623,49.427
0.314,-1.173,-0.559,-30.525,-68.063,55.808
0.312,-1.170,-0.560,-34.019,-77.102,61.855
0.309,-1.167,-0.559,-36.943,-86.060,67.830
0.305,-1.163,-0.558,-39.456,-94.286,73.837
0.299,-1.156,-0.556,-41.853,-101.372,79.628
0.290,-1.148,-0.555,-44.437,-107.303,84.936
0.279,-1.139,-0.556,-47.083,-112.894,89.259
0.267,-1.130,-0.556,-49.228,-118.930,92.655
0.253,-1.120,-0.553,-50.862,-125.849,95.569
0.240,-1.109,-0.550,-52.018,-132.736,98.430
0.227,-1.098,-0.545,-52.476,-139.656,101.244
0.214,-1.087,-0.538,-52.442,-146.402,104.060
0.201,-1.076,-0.529,-52.065,-152.483,106.839
0.188,-1.065,-0.520,-51.339,-157.541,109.626
0.175,-1.052,-0.509,-50.320,-161.617,112.370
0.159,-1.039,-0.498,-49.206,-164.573,114.832
0.145,-1.023,-0.485,-48.056,-166.814,117.031
0.128,-1.005,-0.470,-46.891,-168.955,118.620
0.108,-0.987,-0.453,-46.037,-170.903,119.513
0.087,-0.969,-0.434,-45.547,-172.668,119.955
0.066,-0.951,-0.414,-45.413,-174.364,119.814
0.044,-0.935,-0.395,-45.636,-175.723,119.384
0.022,-0.919,-0.375,-46.057,-176.878,118.793
-0.000,-0.904,-0.356,-46.581,-177.666,118.096
-0.023,-0.889,-0.338,-46.972,-178.069,117.381
-0.047,-0.875,-0.319,-47.157,-178.168,116.680
-0.073,-0.860,-0.298,-47.182,-178.009,115.970
-0.100,-0.844,-0.277,-47.205,-177.558,115.160
-0.127,-0.826,-0.257,-47.309,-176.831,114.257
-0.154,-0.806,-0.238,-47.464,-175.910,113.260
-0.181,-0.784,-0.216,-47.732,-174.991,112.151
-0.209,-0.761,-0.195,-48.291,-173.978,110.884
-0.236,-0.739,-0.171,-49.085,-172.916,109.137
-0.262,-0.720,-0.147,-50.010,-171.407,106.723
-0.285,-0.703,-0.123,-50.803,-169.494,103.352
-0.306,-0.689,-0.100,-51.069,-167.103,99.387
-0.324,-0.677,-0.078,-50.923,-164.225,95.117
-0.340,-0.667,-0.059,-50.322,-161.383,90.837
-0.355,-0.656,-0.042,-48.747,-157.295,86.643
-0.370,-0.646,-0.029,-46.157,-151.326,82.650
-0.383,-0.638,-0.021,-42.482,-143.023,78.926
-0.396,-0.630,-0.016,-37.867,-133.771,75.675
-0.409,-0.623,-0.013,-32.369,-124.531,72.737
-0.422,-0.617,-0.011,-26.643,-116.323,69.985
-0.437,-0.609,-0.010,-21.231,-109.398,67.319
-0.450,-0.602,-0.010,-16.990,-103.580,64.657
-0.464,-0.594,-0.011,-13.913,-99.103,62.019
-0.477,-0.586,-0.012,-11.891,-95.588,59.204
-0.491,-0.579,-0.014,-10.986,-92.581,56.152
-0.503,-0.574,-0.015,-10.684,-89.877,53.146
-0.515,-0.569,-0.017,-10.840,-87.425,50.268
-0.526,-0.565,-0.018,-10.873,-84.974,47.329
-0.537,-0.562,-0.019,-10.917,-82.338,44.742
-0.548,-0.558,-0.020,-10.876,-79.411,42.445
-0.559,-0.554,-0.021,-10.654,-76.379,40.415
-0.570,-0.551,-0.021,-10.262,-73.299,38.684
-0.579,-0.548,-0.021,-9.728,-70.151,37.163
-0.589,-0.545,-0.019,-9.052,-66.956,35.796
-0.598,-0.542,-0.018,-8.300,-63.754,34.573
-0.606,-0.539,-0.015,-7.559,-60.515,33.462
-0.615,-0.535,-0.012,-6.929,-57.156,32.439
-0.623,-0.532,-0.010,-6.424,-53.876,31.488
-0.631,-0.528,-0.008,-6.088,-50.786,30.551
-0.639,-0.525,-0.006,-5.872,-47.934,29.628
-0.647,-0.522,-0.004,-5.751,-45.370,28.701
-0.655,-0.520,-0.003,-5.713,-43.031,27.772
-0.663,-0.517,-0.002,-5.714,-40.887,26.803
-0.670,-0.514,-0.001,-5.684,-38.905,25.818
-0.678,-0.512,-0.000,-5.593,-37.014,24.823
-0.685,-0.510,0.001,-5.357,-35.126,23.822
-0.691,-0.507,0.002,-5.032,-33.182,22.804
-0.698,-0.505,0.004,-4.598,-31.023,21.793
-0.704,-0.502,0.006,-4.050,-28.757,20.763
-0.710,-0.499,0.008,-3.389,-26.391,19.641
-0.716,-0.496,0.011,-2.680,-23.915,18.448
-0.721,-0.494,0.014,-1.978,-21.147,17.216
-0.727,-0.491,0.018,-1.287,-18.185,15.950
-0.733,-0.488,0.022,-0.609,-15.039,14.590
-0.738,-0.485,0.025,0.102,-11.739,13.193
-0.743,-0.482,0.028,0.865,-8.368,11.764
-0.749,-0.479,0.031,1.681,-4.945,10.288
-0.754,-0.476,0.033,2.583,-1.605,8.723
-0.760,-0.473,0.036,3.564,1.625,6.997
-0.764,-0.470,0.039,4.579,4.781,5.214
-0.769,-0.469,0.040,5.674,8.074,3.416
-0.772,-0.468,0.041,6.943,11.418,1.666
-0.776,-0.468,0.041,8.494,14.826,-0.023
-0.779,-0.468,0.042,10.520,18.196,-1.661
-0.782,-0.468,0.042,12.833,21.475,-3.259
-0.786,-0.467,0.042,15.338,24.635,-4.829
-0.790,-0.466,0.043,17.901,27.607,-6.422
-0.793,-0.464,0.044,20.325,30.439,-8.086
-0.796,-0.461,0.043,22.479,33.273,-9.834
-0.799,-0.459,0.042,24.429,36.042,-11.669
-0.801,-0.456,0.041,26.215,38.592,-13.646
-0.804,-0.454,0.040,27.777,40.906,-15.779
-0.807,-0.451,0.039,29.084,43.048,-18.058
-0.809,-0.449,0.038,30.055,44.988,-20.555
-0.810,-0.448,0.037,30.808,46.772,-23.097
-0.812,-0.447,0.037,31.390,48.404,-25.683
-0.812,-0.447,0.037,31.841,49.953,-28.319
-0.813,-0.447,0.037,32.213,51.531,-31.008
-0.813,-0.448,0.036,32.496,53.251,-33.700
-0.812,-0.449,0.036,32.733,55.143,-36.382
-0.811,-0.449,0.034,32.955,57.200,-39.092
-0.810,-0.450,0.032,33.144,59.246,-41.884

0.227,-1.005,-0.709,29.743,38.187,-32.812
0.234,-1.007,-0.714,26.545,17.416,-24.216
0.239,-1.009,-0.718,23.470,-2.306,-15.849
0.241,-1.010,-0.721,20.601,-20.611,-7.666
0.242,-1.010,-0.722,18.108,-37.838,0.347
0.240,-1.010,-0.721,16.134,-54.175,8.137
0.237,-1.008,-0.719,14.590,-69.584,15.655
0.233,-1.005,-0.715,13.404,-83.800,23.003
0.227,-1.002,-0.709,12.334,-96.478,30.294
0.222,-0.996,-0.703,11.348,-107.856,37.608
0.216,-0.989,-0.696,10.462,-118.480,44.453
0.208,-0.982,-0.687,9.622,-128.309,50.871
0.198,-0.972,-0.676,8.819,-137.514,56.894
0.184,-0.963,-0.664,8.055,-146.110,62.344
0.169,-0.952,-0.650,7.262,-153.883,67.228
0.154,-0.941,-0.636,6.507,-160.884,71.548
0.137,-0.930,-0.620,5.731,-166.935,75.272
0.120,-0.919,-0.603,4.963,-172.407,78.559
0.102,-0.907,-0.584,4.184,-177.446,81.311
0.084,-0.895,-0.564,3.359,-181.886,83.491
0.066,-0.883,-0.544,2.501,-185.586,85.301
0.049,-0.871,-0.525,1.673,-188.335,86.814
0.031,-0.860,-0.505,0.738,-190.305,88.026
0.013,-0.849,-0.488,-0.487,-191.369,88.996
-0.004,-0.837,-0.471,-2.043,-191.907,89.835
-0.022,-0.824,-0.453,-3.903,-192.463,90.443
-0.044,-0.810,-0.434,-6.043,-193.351,90.740
-0.066,-0.796,-0.416,-8.943,-194.271,90.717
-0.087,-0.783,-0.397,-12.141,-195.409,90.587
-0.109,-0.772,-0.376,-15.771,-196.713,90.332
-0.131,-0.761,-0.355,-19.512,-197.911,90.022
-0.153,-0.750,-0.331,-22.993,-199.189,89.620
-0.175,-0.739,-0.306,-26.065,-200.269,89.148
-0.197,-0.728,-0.275,-28.623,-201.280,88.615
-0.218,-0.716,-0.242,-30.602,-202.095,88.003
-0.240,-0.702,-0.206,-32.186,-202.513,87.292
-0.259,-0.687,-0.166,-33.468,-201.913,86.361
-0.278,-0.668,-0.124,-34.636,-200.323,84.821
-0.296,-0.649,-0.083,-36.176,-197.478,82.457
-0.309,-0.632,-0.051,-37.900,-193.571,79.310
-0.316,-0.617,-0.027,-39.269,-187.614,75.213
-0.322,-0.607,-0.014,-39.443,-176.416,70.514
-0.328,-0.603,-0.009,-38.406,-159.477,65.724
-0.337,-0.601,-0.007,-35.280,-140.578,61.323
-0.348,-0.601,-0.008,-28.863,-121.186,57.959
-0.360,-0.599,-0.010,-20.851,-102.806,55.405
-0.375,-0.596,-0.014,-11.940,-86.137,53.441
-0.391,-0.592,-0.016,-3.571,-71.986,51.853
-0.408,-0.584,-0.018,2.855,-60.658,50.234
-0.426,-0.574,-0.018,6.724,-52.945,48.392
-0.446,-0.562,-0.016,8.118,-47.909,45.801
-0.465,-0.551,-0.016,7.598,-44.636,42.590
-0.482,-0.544,-0.017,6.372,-42.586,39.011
-0.497,-0.540,-0.019,4.363,-40.937,35.279
-0.510,-0.540,-0.022,2.098,-39.367,31.668
-0.521,-0.543,-0.027,0.222,-37.627,28.552
-0.532,-0.547,-0.033,-1.050,-35.359,26.185
-0.542,-0.552,-0.037,-1.615,-32.838,24.500
-0.554,-0.556,-0.041,-1.392,-30.220,23.619
-0.566,-0.556,-0.043,-0.603,-27.743,23.185
-0.578,-0.554,-0.044,0.447,-25.682,22.985
-0.591,-0.550,-0.042,1.411,-24.146,22.865
-0.603,-0.544,-0.040,2.056,-23.114,22.687
-0.614,-0.538,-0.037,2.348,-22.494,22.377
-0.624,-0.534,-0.035,2.381,-21.978,21.939
-0.633,-0.531,-0.032,2.273,-21.447,21.380
-0.641,-0.530,-0.031,2.179,-20.756,20.819
-0.648,-0.529,-0.029,2.208,-19.765,20.315
-0.655,-0.529,-0.029,2.426,-18.608,19.859
-0.662,-0.528,-0.028,2.872,-17.375,19.470
-0.670,-0.527,-0.028,3.441,-16.204,19.121
-0.678,-0.524,-0.028,4.038,-15.215,18.761
-0.686,-0.521,-0.027,4.573,-14.444,18.341
-0.694,-0.517,-0.026,4.989,-13.876,17.818
-0.702,-0.512,-0.024,5.230,-13.410,17.172
-0.709,-0.508,-0.022,5.347,-12.910,16.394
-0.715,-0.504,-0.019,5.379,-12.316,15.414
-0.720,-0.501,-0.016,5.420,-11.401,14.326
-0.725,-0.499,-0.012,5.529,-10.142,13.163
-0.729,-0.498,-0.009,5.832,-8.435,11.970
-0.733,-0.497,-0.005,6.374,-6.308,10.815
-0.736,-0.496,-0.002,7.214,-3.698,9.668
-0.741,-0.495,0.002,8.303,-0.849,8.561
-0.745,-0.492,0.005,9.687,2.103,7.468
-0.749,-0.490,0.009,11.085,5.072,6.386
-0.752,-0.488,0.011,12.526,8.138,5.389
-0.756,-0.487,0.014,14.040,11.116,4.431
-0.760,-0.486,0.016,15.630,14.015,3.464
-0.764,-0.485,0.018,17.462,16.894,2.434
-0.768,-0.483,0.020,19.411,19.739,1.362
-0.772,-0.480,0.021,21.304,22.576,0.238
-0.776,-0.476,0.023,22.984,25.285,-0.968
-0.780,-0.472,0.024,24.317,27.859,-2.290
-0.782,-0.469,0.022,25.246,30.536,-3.701
-0.783,-0.467,0.019,25.870,33.302,-5.080
-0.785,-0.466,0.016,26.423,36.035,-6.504
-0.787,-0.466,0.012,27.013,38.678,-7.942
-0.789,-0.467,0.008,27.653,41.208,-9.345
-0.791,-0.468,0.005,28.333,43.648,-10.654
-0.793,-0.468,0.002,29.021,45.878,-11.889
-0.795,-0.468,0.000,29.648,47.697,-13.125
-0.798,-0.467,-0.001,30.123,49.119,-14.433
-0.801,-0.465,-0.001,30.288,50.269,-15.938
-0.803,-0.462,-0.000,30.169,51.238,-17.626
-0.805,-0.460,0.000,29.815,52.153,-19.597
-0.806,-0.457,-0.001,29.256,53.307,-21.818
-0.804,-0.456,-0.004,28.611,54.938,-24.152
-0.801,-0.457,-0.008,28.049,57.020,-26.469
-0.797,-0.459,-0.013,27.715,59.515,-28.750
-0.794,-0.461,-0.018,27.695,62.114,-30.961
-0.792,-0.463,-0.023,28.082,64.760,-33.035
-0.790,-0.465,-0.027,28.666,67.401,-34.987
-0.788,-0.466,-0.031,29.303,69.928,-36.857
-0.787,-0.466,-0.033,29.823,72.181,-38.745
-0.786,-0.465,-0.035,30.103,74.110,-40.758
-0.785,-0.464,-0.037,29.899,75.745,-43.115
-0.784,-0.462,-0.038,29.330,77.130,-45.787
-0.781,-0.461,-0.039,28.489,78.333,-48.816
-0.778,-0.461,-0.040,27.479,79.357,-51.931

0.360,-0.881,-0.688,22.939,46.592,-43.936
0.366,-0.883,-0.697,18.568,17.244,-36.436
0.370,-0.885,-0.705,14.423,-9.506,-29.108
0.374,-0.887,-0.712,10.210,-33.891,-21.624
0.376,-0.886,-0.717,5.677,-56.475,-13.905
0.376,-0.882,-0.722,1.179,-78.364,-6.371
0.372,-0.878,-0.722,-2.725,-100.426,0.432
0.363,-0.874,-0.720,-5.928,-122.400,6.620
0.351,-0.873,-0.715,-8.225,-142.849,12.382
0.337,-0.875,-0.706,-9.467,-161.012,18.136
0.323,-0.877,-0.695,-10.135,-176.728,24.123
0.306,-0.878,-0.680,-10.411,-189.788,30.349
0.288,-0.877,-0.662,-10.342,-200.836,36.566
0.267,-0.873,-0.642,-10.078,-209.782,42.713
0.245,-0.865,-0.623,-10.011,-215.782,48.599
0.222,-0.855,-0.605,-10.090,-220.008,54.006
0.198,-0.844,-0.587,-10.364,-223.101,58.314
0.172,-0.829,-0.569,-10.862,-225.310,61.861
0.145,-0.811,-0.553,-11.876,-226.551,64.755
0.118,-0.793,-0.539,-13.519,-227.531,66.847
0.090,-0.776,-0.525,-16.216,-228.775,67.908
0.063,-0.760,-0.512,-19.504,-230.436,68.526
0.039,-0.745,-0.497,-22.986,-233.716,68.851
0.014,-0.730,-0.478,-26.645,-238.473,68.939
-0.009,-0.716,-0.459,-30.353,-243.936,68.832
-0.031,-0.702,-0.438,-33.713,-249.463,68.620
-0.051,-0.689,-0.411,-36.806,-254.551,68.292
-0.072,-0.677,-0.381,-39.710,-258.637,67.699
-0.092,-0.667,-0.349,-41.938,-261.489,66.903
-0.111,-0.659,-0.312,-43.610,-262.972,65.872
-0.129,-0.651,-0.273,-44.695,-261.848,64.661
-0.145,-0.644,-0.233,-44.952,-258.890,63.258
-0.163,-0.637,-0.191,-44.754,-254.436,61.627
-0.179,-0.628,-0.151,-44.244,-248.592,59.802
-0.195,-0.617,-0.112,-43.055,-242.718,57.730
-0.210,-0.603,-0.077,-41.539,-237.661,55.339
-0.225,-0.591,-0.047,-39.747,-228.439,52.678
-0.238,-0.579,-0.023,-37.643,-214.488,50.044
-0.250,-0.570,-0.007,-34.879,-195.939,47.679
-0.262,-0.562,0.004,-31.657,-173.347,45.589
-0.276,-0.558,0.010,-28.259,-151.166,43.686
-0.292,-0.554,0.011,-24.867,-131.594,41.863
-0.310,-0.552,0.007,-21.474,-115.480,40.052
-0.329,-0.548,0.003,-18.615,-104.915,38.225
-0.350,-0.543,-0.001,-16.878,-97.830,36.184
-0.371,-0.538,-0.004,-16.426,-92.922,33.955
-0.390,-0.536,-0.006,-16.456,-89.163,31.628
-0.407,-0.535,-0.008,-16.667,-85.793,29.335
-0.422,-0.535,-0.009,-16.928,-82.223,27.175
-0.437,-0.534,-0.010,-17.217,-78.279,25.200
-0.452,-0.534,-0.012,-17.464,-73.920,23.411
-0.465,-0.534,-0.014,-17.613,-69.405,21.846
-0.478,-0.534,-0.017,-17.486,-64.828,20.534
-0.491,-0.534,-0.020,-17.078,-60.371,19.443
-0.503,-0.533,-0.022,-16.394,-56.089,18.544
-0.515,-0.531,-0.023,-15.316,-52.109,17.829
-0.527,-0.528,-0.023,-14.161,-48.501,17.259
-0.539,-0.525,-0.022,-13.061,-45.242,16.804
-0.550,-0.521,-0.021,-11.993,-42.340,16.470
-0.564,-0.516,-0.020,-11.137,-40.036,16.071
-0.576,-0.512,-0.020,-10.370,-38.643,15.645
-0.587,-0.509,-0.019,-9.754,-37.828,15.222
-0.598,-0.506,-0.019,-9.318,-37.351,14.816
-0.608,-0.504,-0.018,-8.923,-37.059,14.380
-0.617,-0.502,-0.018,-8.529,-36.780,13.911
-0.625,-0.500,-0.018,-8.143,-36.380,13.407
-0.633,-0.498,-0.018,-7.771,-35.776,12.894
-0.640,-0.497,-0.019,-7.445,-34.892,12.373
-0.647,-0.495,-0.020,-7.120,-33.859,11.868
-0.655,-0.493,-0.021,-6.814,-32.754,11.298
-0.662,-0.492,-0.023,-6.559,-31.543,10.716
-0.669,-0.491,-0.025,-6.290,-30.183,10.186
-0.676,-0.490,-0.025,-6.025,-28.765,9.709
-0.683,-0.489,-0.026,-5.756,-27.268,9.252
-0.689,-0.488,-0.026,-5.507,-25.672,8.811
-0.696,-0.487,-0.026,-5.241,-24.052,8.373
-0.702,-0.485,-0.025,-4.973,-22.427,7.916
-0.708,-0.484,-0.024,-4.718,-20.817,7.437
-0.714,-0.483,-0.023,-4.443,-19.195,6.953
-0.720,-0.482,-0.022,-4.064,-17.573,6.534
-0.725,-0.482,-0.022,-3.553,-16.062,6.216
-0.730,-0.481,-0.021,-2.959,-14.709,5.979
-0.736,-0.480,-0.021,-2.369,-13.482,5.781
-0.741,-0.479,-0.021,-1.880,-12.402,5.614
-0.747,-0.477,-0.021,-1.501,-11.498,5.469
-0.752,-0.475,-0.022,-1.221,-10.897,5.310
-0.758,-0.473,-0.021,-1.079,-10.531,5.074
-0.764,-0.472,-0.020,-1.057,-10.350,4.808
-0.769,-0.470,-0.017,-1.118,-10.319,4.508
-0.774,-0.470,-0.014,-1.183,-10.360,4.128
-0.779,-0.470,-0.009,-1.186,-10.428,3.744
-0.783,-0.471,-0.003,-1.067,-10.417,3.365
-0.788,-0.472,0.005,-0.790,-10.264,2.995
-0.792,-0.472,0.014,-0.204,-9.904,2.623
-0.796,-0.473,0.023,0.684,-9.234,2.279
-0.799,-0.473,0.032,1.928,-7.961,1.959
-0.802,-0.471,0.041,3.598,-6.145,1.625
-0.805,-0.469,0.050,5.796,-3.730,1.209
-0.807,-0.466,0.058,8.288,-0.664,0.714
-0.810,-0.463,0.065,10.951,3.282,0.086
-0.811,-0.459,0.073,13.710,7.757,-0.717
-0.813,-0.454,0.080,16.513,12.639,-1.847
-0.814,-0.451,0.087,19.243,17.860,-3.237
-0.815,-0.447,0.093,21.892,23.597,-4.888
-0.816,-0.444,0.099,24.493,29.616,-6.810
-0.817,-0.442,0.105,27.080,35.959,-9.081
-0.818,-0.440,0.110,29.785,42.657,-11.485
-0.819,-0.439,0.112,32.628,50.063,-13.961
-0.819,-0.437,0.114,35.539,57.922,-16.479
-0.820,-0.435,0.113,38.431,66.199,-19.038
-0.819,-0.432,0.110,41.174,74.664,-21.631
-0.818,-0.429,0.106,43.558,82.969,-24.336
-0.819,-0.425,0.102,45.368,90.777,-27.234
-0.819,-0.422,0.096,46.235,97.906,-30.480
-0.819,-0.419,0.089,46.455,104.287,-33.921
-0.819,-0.417,0.081,46.126,109.581,-37.565
-0.819,-0.417,0.074,45.406,113.787,-41.422
-0.819,-0.418,0.066,44.329,117.055,-45.537
-0.818,-0.422,0.059,43.104,119.607,-49.548

0.389,-1.075,-0.470,31.212,107.289,-45.817
0.394,-1.077,-0.487,18.373,92.945,-42.138
0.400,-1.079,-0.503,4.658,76.481,-38.634
0.407,-1.081,-0.520,-8.386,57.403,-35.073
0.414,-1.085,-0.534,-19.805,35.808,-31.120
0.424,-1.089,-0.547,-28.721,13.841,-26.529
0.436,-1.094,-0.559,-34.658,-8.037,-20.638
0.447,-1.098,-0.568,-38.823,-29.233,-13.860
0.458,-1.100,-0.577,-41.720,-50.096,-6.448
0.467,-1.101,-0.584,-43.814,-70.180,1.497
0.474,-1.098,-0.592,-45.706,-89.180,9.557
0.478,-1.092,-0.601,-47.404,-107.197,17.240
0.478,-1.085,-0.608,-48.904,-124.963,24.134
0.474,-1.076,-0.615,-50.429,-141.810,30.242
0.470,-1.067,-0.623,-52.475,-156.809,35.839
0.464,-1.059,-0.631,-54.546,-171.076,40.656
0.456,-1.052,-0.634,-56.268,-185.163,44.730
0.447,-1.045,-0.634,-57.454,-198.764,48.503
0.437,-1.037,-0.630,-58.238,-211.625,52.157
0.424,-1.029,-0.624,-58.746,-223.014,55.785
0.410,-1.020,-0.615,-58.908,-233.172,59.195
0.394,-1.010,-0.604,-58.707,-242.373,62.200
0.375,-0.998,-0.588,-58.324,-251.029,64.732
0.351,-0.987,-0.569,-57.839,-259.276,66.797
0.325,-0.975,-0.548,-57.398,-266.350,68.429
0.298,-0.963,-0.527,-56.884,-272.304,69.809
0.269,-0.951,-0.499,-56.370,-277.329,70.858
0.239,-0.941,-0.475,-55.961,-281.109,71.770
0.211,-0.930,-0.451,-55.627,-283.966,72.714
0.182,-0.921,-0.424,-55.391,-286.213,73.594
0.155,-0.911,-0.397,-55.182,-287.339,74.435
0.128,-0.902,-0.370,-54.882,-287.770,75.199
0.102,-0.892,-0.342,-54.483,-287.491,75.908
0.075,-0.882,-0.313,-54.028,-286.354,76.542
0.047,-0.870,-0.284,-53.569,-284.469,77.089
0.020,-0.857,-0.254,-53.103,-281.809,77.501
-0.007,-0.841,-0.224,-52.675,-278.448,77.757
-0.035,-0.824,-0.193,-52.358,-274.133,77.786
-0.062,-0.806,-0.161,-52.085,-269.388,77.146
-0.086,-0.790,-0.125,-51.850,-264.343,76.614
-0.108,-0.777,-0.089,-51.574,-258.742,75.828
-0.127,-0.766,-0.051,-50.977,-252.882,74.625
-0.142,-0.756,-0.014,-49.232,-246.936,72.738
-0.157,-0.745,0.023,-46.090,-241.233,70.555
-0.170,-0.732,0.056,-41.902,-235.167,68.201
-0.183,-0.718,0.083,-37.115,-223.958,65.785
-0.196,-0.702,0.104,-32.112,-206.530,63.512
-0.210,-0.687,0.116,-27.101,-181.019,61.583
-0.226,-0.672,0.119,-22.481,-156.812,59.938
-0.245,-0.658,0.116,-18.651,-135.601,58.211
-0.266,-0.645,0.109,-16.143,-119.272,56.168
-0.287,-0.633,0.101,-14.646,-110.015,53.775
-0.310,-0.623,0.093,-14.030,-104.989,50.906
-0.331,-0.616,0.088,-14.121,-102.218,47.323
-0.350,-0.611,0.085,-14.432,-100.329,43.521
-0.366,-0.609,0.086,-14.888,-98.463,39.744
-0.380,-0.609,0.088,-15.288,-95.907,36.297
-0.392,-0.610,0.091,-15.394,-92.413,33.725
-0.405,-0.612,0.094,-15.144,-87.953,31.791
-0.419,-0.613,0.094,-14.413,-82.410,30.370
-0.434,-0.611,0.092,-13.176,-76.627,29.385
-0.448,-0.608,0.091,-11.656,-71.081,28.541
-0.463,-0.602,0.089,-10.298,-66.105,27.730
-0.477,-0.596,0.087,-9.114,-61.874,26.919
-0.491,-0.590,0.086,-8.272,-58.349,26.025
-0.505,-0.583,0.087,-7.822,-55.460,25.169
-0.518,-0.577,0.090,-7.658,-53.268,24.322
-0.530,-0.572,0.092,-7.662,-51.473,23.464
-0.541,-0.568,0.094,-7.693,-49.969,22.694
-0.552,-0.566,0.097,-7.665,-48.611,22.035
-0.562,-0.565,0.099,-7.481,-47.229,21.489
-0.571,-0.564,0.100,-7.076,-45.739,21.035
-0.580,-0.561,0.101,-6.567,-44.115,20.563
-0.588,-0.559,0.100,-6.045,-42.267,20.047
-0.597,-0.555,0.099,-5.550,-40.460,19.455
-0.606,-0.552,0.098,-5.149,-38.778,18.788
-0.615,-0.549,0.097,-4.848,-37.334,18.047
-0.623,-0.546,0.096,-4.643,-36.006,17.245
-0.631,-0.543,0.095,-4.533,-34.732,16.404
-0.639,-0.541,0.094,-4.439,-33.437,15.578
-0.646,-0.539,0.094,-4.310,-32.074,14.747
-0.653,-0.537,0.094,-4.159,-30.635,13.927
-0.660,-0.536,0.095,-3.996,-29.070,13.135
-0.667,-0.535,0.096,-3.820,-27.359,12.380
-0.674,-0.534,0.097,-3.592,-25.650,11.657
-0.681,-0.533,0.098,-3.296,-24.000,10.958
-0.688,-0.531,0.099,-2.963,-22.444,10.320
-0.694,-0.530,0.101,-2.576,-21.023,9.738
-0.701,-0.529,0.102,-2.147,-19.716,9.202
-0.707,-0.528,0.103,-1.656,-18.514,8.714
-0.712,-0.526,0.105,-1.147,-17.374,8.277
-0.717,-0.524,0.105,-0.624,-16.236,7.900
-0.722,-0.521,0.105,-0.149,-15.114,7.535
-0.727,-0.518,0.105,0.244,-14.005,7.140
-0.732,-0.514,0.105,0.500,-12.957,6.691
-0.737,-0.511,0.104,0.582,-12.060,6.130
-0.742,-0.507,0.104,0.511,-11.332,5.446
-0.747,-0.504,0.105,0.282,-10.787,4.593
-0.753,-0.501,0.107,0.006,-10.388,3.648
-0.757,-0.499,0.110,-0.265,-10.088,2.627
-0.762,-0.497,0.114,-0.452,-9.773,1.523
-0.766,-0.496,0.119,-0.405,-9.367,0.408
-0.769,-0.495,0.124,-0.088,-8.693,-0.716
-0.773,-0.493,0.131,0.550,-7.761,-1.869
-0.776,-0.491,0.138,1.589,-6.433,-3.189
-0.779,-0.488,0.142,2.829,-4.402,-4.571
-0.779,-0.487,0.143,4.415,-1.289,-5.909
-0.779,-0.487,0.144,6.265,2.242,-7.273
-0.780,-0.487,0.144,8.284,6.037,-8.739
-0.781,-0.488,0.143,10.380,9.988,-10.172
-0.782,-0.489,0.143,12.489,13.658,-11.527
-0.784,-0.490,0.145,14.461,16.905,-12.846
-0.787,-0.490,0.147,16.133,19.656,-14.142
-0.790,-0.492,0.150,17.560,21.971,-15.424
-0.793,-0.494,0.154,18.796,23.947,-16.669
-0.795,-0.496,0.159,19.942,25.854,-17.824
-0.797,-0.498,0.164,21.061,27.893,-18.916
-0.799,-0.501,0.167,22.218,30.386,-19.911
-0.799,-0.504,0.168,23.625,33.509,-20.707

0.220,-1.187,-0.520,18.645,27.089,-17.494
0.227,-1.191,-0.529,13.426,19.730,-14.375
0.236,-1.194,-0.537,6.854,10.922,-10.568
0.246,-1.197,-0.548,0.310,-0.263,-5.673
0.257,-1.202,-0.557,-6.519,-12.903,-0.025
0.270,-1.205,-0.566,-13.475,-26.631,6.326
0.283,-1.207,-0.575,-20.493,-41.022,13.527
0.295,-1.207,-0.584,-27.087,-55.930,21.000
0.305,-1.207,-0.592,-32.969,-71.052,28.471
0.314,-1.207,-0.599,-38.124,-85.222,35.920
0.320,-1.206,-0.606,-42.035,-98.504,43.333
0.326,-1.204,-0.611,-44.892,-111.020,50.683
0.329,-1.201,-0.614,-47.035,-122.427,58.305
0.332,-1.197,-0.617,-48.731,-133.010,66.499
0.331,-1.190,-0.617,-50.086,-143.393,74.640
0.328,-1.181,-0.615,-51.309,-153.920,82.458
0.320,-1.170,-0.612,-52.420,-164.103,89.843
0.311,-1.158,-0.608,-53.540,-173.758,96.570
0.300,-1.145,-0.601,-54.595,-182.847,102.497
0.288,-1.131,-0.592,-55.552,-191.031,107.606
0.275,-1.118,-0.581,-56.361,-198.079,111.944
0.262,-1.104,-0.570,-56.850,-203.721,115.758
0.250,-1.090,-0.559,-57.109,-207.444,119.159
0.238,-1.076,-0.550,-57.210,-209.595,122.238
0.227,-1.061,-0.541,-56.955,-210.841,125.031
0.214,-1.044,-0.530,-56.507,-211.947,127.456
0.197,-1.025,-0.517,-55.986,-213.267,129.466
0.178,-1.006,-0.503,-55.492,-214.756,130.871
0.157,-0.987,-0.488,-55.094,-216.456,131.759
0.135,-0.966,-0.473,-54.876,-218.350,132.202
0.113,-0.946,-0.458,-54.987,-220.243,132.185
0.091,-0.925,-0.443,-55.468,-222.275,131.630
0.070,-0.904,-0.425,-56.295,-224.659,130.701
0.048,-0.883,-0.404,-57.604,-227.351,129.414
0.025,-0.865,-0.383,-59.443,-229.801,127.789
0.003,-0.848,-0.361,-61.657,-231.865,126.053
-0.019,-0.832,-0.335,-64.013,-233.507,124.272
-0.043,-0.817,-0.310,-66.346,-234.318,122.464
-0.065,-0.804,-0.287,-67.938,-234.191,120.672
-0.087,-0.792,-0.264,-68.777,-232.798,118.927
-0.109,-0.780,-0.241,-68.930,-230.652,117.205
-0.132,-0.766,-0.217,-68.423,-228.052,115.544
-0.157,-0.749,-0.188,-67.963,-225.327,113.889
-0.181,-0.730,-0.156,-67.466,-222.348,112.191
-0.204,-0.712,-0.119,-67.109,-219.104,110.007
-0.226,-0.694,-0.080,-66.948,-215.397,107.364
-0.245,-0.678,-0.041,-66.977,-211.109,104.095
-0.262,-0.661,-0.005,-67.074,-206.882,100.013
-0.276,-0.646,0.027,-66.947,-201.906,95.422
-0.288,-0.634,0.052,-66.358,-191.343,90.677
-0.302,-0.625,0.071,-65.396,-176.609,86.016
-0.316,-0.618,0.085,-63.226,-158.586,81.742
-0.332,-0.613,0.093,-60.125,-138.434,77.875
-0.349,-0.606,0.095,-56.228,-118.292,74.329
-0.367,-0.600,0.095,-52.278,-101.183,70.702
-0.386,-0.594,0.090,-49.017,-87.691,66.922
-0.405,-0.588,0.084,-46.389,-78.879,63.121
-0.424,-0.584,0.077,-44.416,-73.188,59.309
-0.443,-0.582,0.072,-43.072,-69.562,55.506
-0.461,-0.581,0.067,-42.043,-67.098,51.869
-0.477,-0.580,0.063,-41.202,-65.112,48.481
-0.491,-0.580,0.060,-40.426,-63.108,45.471
-0.506,-0.579,0.057,-39.686,-60.935,42.795
-0.520,-0.577,0.055,-38.933,-58.427,40.418
-0.534,-0.574,0.053,-38.125,-55.820,38.294
-0.547,-0.570,0.052,-37.285,-53.250,36.412
-0.560,-0.567,0.052,-36.446,-50.794,34.694
-0.573,-0.563,0.052,-35.564,-48.467,33.174
-0.584,-0.560,0.053,-34.609,-46.276,31.912
-0.595,-0.556,0.055,-33.571,-44.213,30.798
-0.605,-0.552,0.056,-32.431,-42.265,29.794
-0.615,-0.549,0.058,-31.216,-40.475,28.861
-0.624,-0.545,0.059,-29.994,-38.832,27.955
-0.632,-0.542,0.059,-28.743,-37.288,27.081
-0.640,-0.540,0.058,-27.487,-35.825,26.209
-0.647,-0.537,0.057,-26.224,-34.384,25.362
-0.655,-0.534,0.054,-24.973,-32.964,24.538
-0.662,-0.531,0.052,-23.784,-31.517,23.768
-0.669,-0.528,0.049,-22.691,-30.114,23.029
-0.677,-0.525,0.045,-21.735,-28.827,22.256
-0.685,-0.521,0.042,-20.960,-27.740,21.456
-0.693,-0.517,0.040,-20.335,-26.888,20.601
-0.700,-0.514,0.038,-19.833,-26.152,19.703
-0.707,-0.511,0.037,-19.413,-25.442,18.785
-0.713,-0.510,0.036,-18.938,-24.642,17.937
-0.718,-0.509,0.035,-18.347,-23.654,17.183
-0.724,-0.509,0.035,-17.588,-22.557,16.538
-0.729,-0.508,0.035,-16.693,-21.365,15.965
-0.734,-0.506,0.034,-15.786,-20.145,15.445
-0.740,-0.503,0.034,-14.947,-18.943,14.940
-0.746,-0.500,0.034,-14.208,-17.828,14.412
-0.751,-0.497,0.034,-13.651,-16.853,13.857
-0.757,-0.493,0.034,-13.246,-16.004,13.280
-0.762,-0.490,0.034,-12.963,-15.264,12.696
-0.767,-0.488,0.034,-12.755,-14.625,12.113
-0.771,-0.486,0.033,-12.549,-14.098,11.555
-0.775,-0.485,0.033,-12.331,-13.634,11.040
-0.779,-0.484,0.034,-12.079,-13.184,10.589
-0.782,-0.483,0.034,-11.756,-12.711,10.190
-0.785,-0.482,0.034,-11.403,-12.201,9.809
-0.788,-0.481,0.034,-11.082,-11.632,9.422
-0.791,-0.480,0.034,-10.794,-11.008,9.019
-0.795,-0.479,0.033,-10.555,-10.389,8.592
-0.798,-0.477,0.033,-10.360,-9.829,8.124
-0.802,-0.475,0.032,-10.253,-9.372,7.592
-0.806,-0.472,0.033,-10.291,-9.047,7.005
-0.809,-0.470,0.033,-10.411,-8.902,6.375
-0.813,-0.469,0.036,-10.594,-8.904,5.740
-0.816,-0.468,0.038,-10.816,-8.974,5.154
-0.818,-0.467,0.041,-10.977,-8.954,4.638
-0.820,-0.467,0.043,-11.020,-8.592,4.200
-0.821,-0.467,0.046,-10.877,-7.863,3.870
-0.823,-0.468,0.049,-10.356,-6.789,3.598
-0.825,-0.469,0.052,-9.580,-5.431,3.360
-0.829,-0.468,0.056,-8.568,-3.793,3.135
-0.832,-0.468,0.061,-7.395,-2.057,2.920
-0.836,-0.467,0.066,-6.065,-0.320,2.710
-0.839,-0.466,0.073,-4.786,1.220,2.476
-0.842,-0.465,0.080,-3.510,2.765,2.255

0.142,-0.935,-0.844,-6.239,-3.521,3.293
0.148,-0.938,-0.853,-8.870,-10.960,4.462
0.156,-0.941,-0.862,-11.332,-19.735,6.102
0.164,-0.942,-0.870,-13.682,-29.869,8.139
0.174,-0.943,-0.879,-15.909,-42.120,10.569
0.185,-0.943,-0.887,-18.186,-55.727,13.333
0.194,-0.940,-0.893,-20.877,-70.254,16.367
0.202,-0.938,-0.899,-23.722,-87.715,19.290
0.208,-0.935,-0.903,-26.626,-102.942,22.088
0.212,-0.932,-0.906,-29.419,-118.222,24.749
0.214,-0.929,-0.907,-31.907,-133.376,27.179
0.214,-0.926,-0.906,-33.998,-147.917,29.526
0.213,-0.924,-0.904,-35.719,-161.331,31.942
0.211,-0.921,-0.902,-37.005,-173.841,34.404
0.209,-0.916,-0.899,-37.869,-185.925,36.794
0.205,-0.911,-0.891,-38.436,-198.569,39.140
0.199,-0.904,-0.880,-38.873,-210.618,41.378
0.192,-0.898,-0.869,-39.262,-221.094,43.521
0.184,-0.891,-0.855,-39.551,-230.082,45.483
0.174,-0.885,-0.839,-39.754,-237.997,47.239
0.162,-0.877,-0.821,-39.937,-244.792,48.701
0.150,-0.871,-0.803,-40.081,-250.155,49.955
0.137,-0.865,-0.782,-40.192,-254.947,51.006
0.122,-0.859,-0.759,-40.468,-259.202,51.780
0.107,-0.852,-0.735,-41.109,-262.762,52.331
0.092,-0.844,-0.710,-41.983,-265.803,52.672
0.075,-0.837,-0.682,-43.100,-268.922,52.760
0.057,-0.830,-0.654,-44.460,-271.672,52.605
0.039,-0.825,-0.629,-45.679,-273.407,52.418
0.021,-0.822,-0.600,-46.731,-274.585,52.209
0.001,-0.819,-0.571,-47.671,-275.210,51.968
-0.019,-0.817,-0.544,-48.175,-275.121,51.867
-0.038,-0.816,-0.514,-48.296,-274.311,51.867
-0.058,-0.815,-0.481,-48.095,-272.697,52.076
-0.080,-0.813,-0.447,-47.537,-270.312,52.497
-0.101,-0.810,-0.409,-46.595,-266.788,53.124
-0.122,-0.805,-0.369,-45.231,-262.323,53.937
-0.142,-0.795,-0.328,-42.893,-257.147,54.917
-0.162,-0.783,-0.284,-40.191,-251.365,55.795
-0.183,-0.765,-0.239,-37.438,-245.669,56.330
-0.203,-0.744,-0.194,-35.064,-240.434,56.287
-0.222,-0.724,-0.149,-33.025,-234.419,55.814
-0.240,-0.704,-0.109,-31.210,-225.351,54.858
-0.256,-0.685,-0.074,-28.308,-213.022,53.333
-0.273,-0.667,-0.044,-26.188,-197.822,51.499
-0.289,-0.649,-0.021,-23.976,-179.402,49.383
-0.306,-0.634,-0.005,-21.687,-159.627,47.004
-0.322,-0.621,0.004,-19.011,-139.453,44.668
-0.338,-0.610,0.008,-16.040,-120.131,42.481
-0.356,-0.602,0.008,-13.007,-102.837,40.465
-0.374,-0.594,0.006,-10.128,-88.132,38.626
-0.392,-0.588,0.002,-7.705,-76.495,36.775
-0.410,-0.582,-0.004,-5.822,-68.382,34.860
-0.429,-0.578,-0.010,-4.471,-62.598,32.686
-0.447,-0.574,-0.016,-3.783,-58.416,30.372
-0.465,-0.570,-0.021,-3.491,-55.461,28.019
-0.483,-0.566,-0.025,-3.480,-53.073,25.733
-0.499,-0.563,-0.026,-3.716,-51.122,23.661
-0.515,-0.560,-0.027,-4.070,-49.466,21.886
-0.529,-0.558,-0.026,-4.433,-47.954,20.446
-0.542,-0.556,-0.024,-4.739,-46.505,19.391
-0.554,-0.555,-0.021,-4.853,-45.002,18.617
-0.565,-0.553,-0.017,-4.792,-43.291,18.067
-0.575,-0.552,-0.013,-4.577,-41.368,17.739
-0.584,-0.549,-0.009,-4.253,-39.297,17.587
-0.593,-0.546,-0.005,-3.890,-37.104,17.481
-0.602,-0.542,-0.001,-3.555,-34.988,17.354
-0.612,-0.537,0.002,-3.367,-33.005,17.169
-0.621,-0.533,0.005,-3.344,-31.155,16.955
-0.630,-0.529,0.006,-3.403,-29.442,16.713
-0.639,-0.525,0.006,-3.501,-27.925,16.380
-0.647,-0.521,0.006,-3.632,-26.584,15.957
-0.655,-0.517,0.005,-3.763,-25.405,15.481
-0.663,-0.514,0.004,-3.852,-24.349,14.951
-0.670,-0.512,0.003,-3.852,-23.336,14.379
-0.677,-0.510,0.002,-3.796,-22.322,13.811
-0.684,-0.507,0.001,-3.688,-21.264,13.226
-0.691,-0.505,0.001,-3.573,-20.195,12.587
-0.698,-0.502,-0.000,-3.505,-19.047,11.929
-0.704,-0.501,-0.001,-3.439,-17.817,11.289
-0.711,-0.500,-0.001,-3.376,-16.587,10.694
-0.717,-0.500,-0.001,-3.313,-15.392,10.153
-0.724,-0.500,-0.002,-3.212,-14.305,9.663
-0.730,-0.500,-0.002,-3.098,-13.360,9.225
-0.736,-0.499,-0.002,-2.985,-12.512,8.887
-0.743,-0.499,-0.001,-2.864,-11.831,8.597
-0.749,-0.499,-0.000,-2.740,-11.262,8.342
-0.754,-0.498,-0.000,-2.637,-10.727,8.124
-0.759,-0.497,0.000,-2.530,-10.272,7.926
-0.764,-0.496,0.000,-2.461,-9.891,7.741
-0.769,-0.494,0.000,-2.443,-9.555,7.542
-0.774,-0.493,0.000,-2.437,-9.315,7.338
-0.778,-0.492,0.000,-2.457,-9.199,7.134
-0.782,-0.491,-0.000,-2.498,-9.138,6.927
-0.786,-0.490,-0.000,-2.539,-9.116,6.719
-0.790,-0.489,-0.001,-2.573,-9.138,6.503
-0.793,-0.487,-0.001,-2.604,-9.198,6.275
-0.796,-0.486,-0.000,-2.639,-9.267,6.022
-0.799,-0.485,-0.000,-2.642,-9.308,5.747
-0.802,-0.484,-0.000,-2.616,-9.299,5.451
-0.804,-0.482,0.000,-2.535,-9.220,5.132
-0.806,-0.482,0.001,-2.375,-9.049,4.820
-0.808,-0.480,0.002,-2.165,-8.803,4.543
-0.811,-0.479,0.003,-1.961,-8.468,4.275
-0.813,-0.478,0.003,-1.760,-8.048,4.003
-0.816,-0.477,0.003,-1.572,-7.525,3.768
-0.818,-0.476,0.003,-1.407,-6.999,3.553
-0.820,-0.476,0.003,-1.262,-6.526,3.356
-0.823,-0.475,0.003,-1.158,-6.134,3.169
-0.826,-0.474,0.004,-1.106,-5.829,3.010
-0.829,-0.474,0.006,-1.096,-5.628,2.874
-0.832,-0.475,0.007,-1.083,-5.466,2.762
-0.834,-0.475,0.009,-0.994,-5.318,2.694
-0.837,-0.475,0.012,-0.868,-5.164,2.655
-0.840,-0.475,0.015,-0.727,-4.995,2.623
-0.843,-0.474,0.020,-0.544,-4.827,2.601
-0.846,-0.474,0.025,-0.299,-4.647,2.587
-0.850,-0.474,0.031,0.015,-4.408,2.571
-0.853,-0.474,0.038,0.404,-4.067,2.534

0.148,-0.950,-0.821,-0.014,-5.307,3.232
0.153,-0.950,-0.829,-0.832,-7.116,4.005
0.157,-0.950,-0.839,-2.297,-9.450,4.747
0.160,-0.951,-0.851,-4.624,-12.546,5.400
0.164,-0.952,-0.863,-7.397,-16.550,6.031
0.167,-0.954,-0.875,-10.323,-21.983,6.729
0.172,-0.959,-0.886,-13.098,-28.510,7.631
0.177,-0.964,-0.896,-15.390,-36.176,9.029
0.184,-0.969,-0.905,-17.374,-45.586,11.123
0.192,-0.973,-0.913,-19.225,-56.248,13.961
0.200,-0.975,-0.919,-21.115,-68.145,17.598
0.207,-0.974,-0.924,-23.439,-80.903,21.453
0.211,-0.974,-0.929,-26.227,-94.290,25.331
0.214,-0.972,-0.933,-29.530,-107.511,29.141
0.217,-0.970,-0.937,-33.281,-120.619,32.751
0.218,-0.967,-0.939,-37.312,-133.823,36.090
0.218,-0.963,-0.940,-41.313,-146.985,39.218
0.217,-0.960,-0.939,-45.024,-160.169,42.128
0.213,-0.957,-0.937,-48.151,-173.094,44.877
0.208,-0.954,-0.934,-50.188,-185.640,47.568
0.202,-0.950,-0.927,-51.480,-197.979,50.323
0.195,-0.945,-0.918,-52.206,-209.752,53.152
0.185,-0.939,-0.906,-52.577,-220.724,55.930
0.174,-0.931,-0.892,-52.864,-230.766,58.484
0.161,-0.922,-0.876,-53.110,-239.818,60.735
0.149,-0.913,-0.859,-53.336,-247.598,62.711
0.135,-0.903,-0.841,-53.578,-254.465,64.360
0.120,-0.892,-0.820,-53.954,-260.476,65.669
0.105,-0.881,-0.798,-54.528,-265.620,66.709
0.089,-0.869,-0.775,-55.419,-270.087,67.424
0.072,-0.857,-0.750,-56.707,-273.850,67.854
0.054,-0.843,-0.724,-58.399,-277.120,67.995
0.034,-0.830,-0.698,-60.625,-279.991,67.823
0.015,-0.819,-0.671,-63.269,-282.447,67.394
-0.004,-0.810,-0.643,-65.981,-284.839,66.857
-0.023,-0.804,-0.608,-68.440,-287.831,66.237
-0.043,-0.801,-0.571,-70.517,-290.593,65.553
-0.062,-0.802,-0.532,-71.396,-292.438,65.038
-0.080,-0.805,-0.490,-71.344,-292.910,64.687
-0.097,-0.807,-0.445,-70.570,-291.192,64.528
-0.115,-0.808,-0.401,-68.621,-287.727,64.627
-0.132,-0.804,-0.356,-66.460,-282.832,64.834
-0.151,-0.794,-0.310,-63.824,-276.681,64.988
-0.173,-0.779,-0.261,-61.198,-270.277,64.887
-0.195,-0.761,-0.210,-58.929,-263.928,64.357
-0.217,-0.742,-0.157,-56.945,-257.898,63.335
-0.236,-0.724,-0.106,-55.141,-252.979,61.867
-0.251,-0.705,-0.062,-53.277,-244.435,59.895
-0.265,-0.684,-0.026,-51.246,-231.259,57.441
-0.278,-0.666,-0.002,-48.728,-211.122,54.482
-0.291,-0.648,0.013,-45.432,-187.099,51.295
-0.306,-0.633,0.021,-41.282,-161.226,48.035
-0.322,-0.620,0.024,-36.967,-136.207,44.802
-0.340,-0.607,0.024,-33.084,-115.020,41.489
-0.358,-0.596,0.021,-29.964,-97.641,38.389
-0.376,-0.588,0.019,-27.890,-84.536,35.669
-0.396,-0.584,0.017,-26.422,-76.160,33.368
-0.415,-0.582,0.014,-25.285,-70.806,31.421
-0.434,-0.581,0.012,-24.361,-67.636,29.733
-0.452,-0.581,0.010,-23.564,-65.791,28.183
-0.468,-0.580,0.009,-22.896,-64.616,26.763
-0.483,-0.578,0.009,-22.346,-63.476,25.427
-0.497,-0.575,0.009,-21.839,-62.213,24.162
-0.510,-0.571,0.010,-21.276,-60.659,23.015
-0.523,-0.566,0.012,-20.697,-58.953,22.022
-0.537,-0.559,0.015,-20.139,-57.205,21.296
-0.550,-0.551,0.019,-19.623,-55.520,20.711
-0.562,-0.545,0.024,-19.148,-53.841,20.212
-0.574,-0.538,0.028,-18.658,-52.077,19.787
-0.584,-0.533,0.033,-18.050,-50.168,19.364
-0.594,-0.529,0.037,-17.363,-47.866,18.942
-0.602,-0.525,0.041,-16.593,-45.281,18.508
-0.610,-0.521,0.044,-15.720,-42.487,18.042
-0.619,-0.518,0.045,-14.806,-39.623,17.559
-0.627,-0.514,0.046,-13.876,-36.919,17.030
-0.635,-0.510,0.046,-13.046,-34.525,16.448
-0.643,-0.505,0.047,-12.436,-32.480,15.781
-0.652,-0.501,0.047,-12.015,-30.824,15.022
-0.660,-0.496,0.047,-11.770,-29.426,14.184
-0.668,-0.493,0.048,-11.675,-28.218,13.288
-0.676,-0.491,0.048,-11.600,-27.121,12.446
-0.684,-0.491,0.049,-11.482,-25.986,11.745
-0.691,-0.491,0.050,-11.282,-24.850,11.220
-0.698,-0.491,0.051,-10.964,-23.682,10.796
-0.704,-0.490,0.052,-10.566,-22.481,10.470
-0.711,-0.489,0.054,-10.131,-21.227,10.228
-0.718,-0.487,0.055,-9.670,-19.890,10.090
-0.724,-0.484,0.056,-9.245,-18.504,9.959
-0.732,-0.481,0.057,-8.906,-17.206,9.774
-0.738,-0.477,0.058,-8.682,-16.055,9.478
-0.745,-0.474,0.059,-8.587,-15.076,9.120
-0.751,-0.471,0.059,-8.545,-14.356,8.720
-0.757,-0.468,0.060,-8.524,-13.787,8.291
-0.762,-0.467,0.060,-8.464,-13.332,7.867
-0.767,-0.467,0.060,-8.322,-12.920,7.481
-0.771,-0.466,0.060,-8.041,-12.561,7.154
-0.775,-0.466,0.061,-7.661,-12.224,6.899
-0.779,-0.465,0.061,-7.234,-11.920,6.640
-0.783,-0.463,0.061,-6.863,-11.679,6.351
-0.787,-0.461,0.061,-6.556,-11.461,6.033
-0.791,-0.459,0.062,-6.371,-11.255,5.705
-0.796,-0.457,0.062,-6.274,-11.024,5.401
-0.799,-0.455,0.062,-6.230,-10.769,5.123
-0.803,-0.453,0.062,-6.236,-10.509,4.851
-0.807,-0.452,0.062,-6.282,-10.242,4.617
-0.810,-0.451,0.063,-6.345,-9.961,4.416
-0.813,-0.450,0.063,-6.392,-9.661,4.250
-0.815,-0.450,0.064,-6.411,-9.342,4.131
-0.817,-0.449,0.064,-6.388,-9.002,4.012
-0.820,-0.448,0.064,-6.313,-8.616,3.902
-0.822,-0.448,0.065,-6.154,-8.240,3.824
-0.824,-0.447,0.065,-5.954,-7.852,3.756
-0.826,-0.445,0.066,-5.749,-7.497,3.670
-0.829,-0.444,0.066,-5.529,-7.187,3.546
-0.831,-0.443,0.067,-5.266,-6.893,3.406
-0.833,-0.442,0.067,-4.963,-6.623,3.257
-0.835,-0.440,0.069,-4.649,-6.329,3.083
-0.837,-0.439,0.070,-4.330,-5.983,2.902
-0.839,-0.438,0.071,-4.000,-5.510,2.736

0.383,-1.076,-0.492,19.305,9.931,0.762
0.391,-1.073,-0.511,31.819,20.722,-0.397
0.393,-1.066,-0.529,36.790,25.744,-0.933
0.389,-1.058,-0.544,36.931,25.103,-1.090
0.388,-1.051,-0.557,35.271,23.014,-1.102
0.390,-1.045,-0.565,28.445,19.158,-0.974
0.395,-1.042,-0.570,17.524,13.437,-0.703
0.403,-1.043,-0.576,4.827,5.965,-0.397
0.411,-1.047,-0.583,-7.725,-1.787,-0.106
0.420,-1.052,-0.591,-18.767,-9.407,0.310
0.429,-1.057,-0.600,-28.154,-16.940,0.859
0.437,-1.063,-0.611,-35.825,-24.437,1.568
0.445,-1.069,-0.624,-41.739,-32.567,2.532
0.453,-1.074,-0.636,-45.454,-41.990,4.032
0.460,-1.076,-0.647,-47.811,-53.884,6.438
0.465,-1.074,-0.654,-49.390,-67.608,9.930
0.470,-1.070,-0.659,-50.880,-82.773,14.496
0.475,-1.064,-0.665,-52.963,-98.428,19.086
0.480,-1.057,-0.669,-55.659,-114.712,23.123
0.485,-1.052,-0.672,-58.974,-130.174,26.369
0.487,-1.048,-0.675,-63.153,-143.797,29.264
0.488,-1.044,-0.678,-67.854,-155.632,31.864
0.486,-1.041,-0.681,-72.681,-165.804,34.063
0.483,-1.039,-0.685,-77.327,-174.775,35.849
0.478,-1.037,-0.690,-80.854,-182.880,37.488
0.472,-1.037,-0.694,-82.974,-190.576,39.103
0.462,-1.036,-0.697,-83.821,-198.046,40.974
0.450,-1.034,-0.699,-83.390,-205.294,43.251
0.434,-1.032,-0.699,-82.010,-212.506,46.206
0.417,-1.029,-0.697,-80.394,-219.410,49.790
0.399,-1.022,-0.693,-78.542,-225.859,53.818
0.381,-1.013,-0.688,-76.706,-232.082,57.760
0.362,-1.004,-0.679,-74.906,-238.732,60.990
0.341,-0.994,-0.665,-73.317,-245.349,63.780
0.319,-0.983,-0.648,-72.046,-251.303,66.355
0.296,-0.974,-0.629,-70.879,-256.002,68.703
0.272,-0.964,-0.607,-69.872,-259.531,70.670
0.248,-0.959,-0.582,-69.072,-262.111,71.811
0.222,-0.948,-0.560,-68.299,-262.784,73.023
0.190,-0.933,-0.536,-67.644,-263.091,74.097
0.158,-0.921,-0.511,-67.250,-263.200,74.818
0.126,-0.908,-0.485,-67.253,-263.259,75.384
0.095,-0.895,-0.456,-67.791,-263.808,75.884
0.063,-0.881,-0.424,-68.954,-265.096,76.035
0.032,-0.869,-0.391,-70.625,-267.176,75.849
0.003,-0.856,-0.355,-72.737,-269.441,75.496
-0.025,-0.843,-0.317,-74.896,-271.001,75.083
-0.052,-0.828,-0.277,-76.710,-271.765,74.496
-0.076,-0.812,-0.237,-77.853,-270.931,73.871
-0.100,-0.794,-0.193,-78.893,-268.553,73.075
-0.120,-0.777,-0.149,-79.975,-265.007,71.357
-0.138,-0.758,-0.102,-81.196,-260.476,68.592
-0.151,-0.742,-0.055,-82.562,-254.673,64.460
-0.159,-0.732,-0.020,-82.471,-248.414,59.505
-0.166,-0.727,0.005,-81.221,-232.838,54.380
-0.175,-0.725,0.021,-78.547,-205.968,49.244
-0.187,-0.725,0.032,-73.387,-175.529,44.625
-0.200,-0.725,0.039,-65.799,-145.159,40.982
-0.217,-0.723,0.040,-57.876,-117.686,38.088
-0.236,-0.721,0.035,-50.314,-94.940,35.163
-0.252,-0.716,0.027,-44.062,-75.399,32.211
-0.271,-0.714,0.019,-39.779,-59.335,29.600
-0.291,-0.713,0.009,-36.696,-47.691,27.409
-0.314,-0.713,0.000,-34.641,-40.212,25.483
-0.337,-0.713,-0.008,-33.225,-36.445,23.825
-0.360,-0.713,-0.014,-32.271,-35.697,22.434
-0.381,-0.713,-0.018,-31.555,-35.892,21.316
-0.399,-0.711,-0.020,-30.904,-36.388,20.489
-0.416,-0.710,-0.020,-30.166,-36.848,19.856
-0.430,-0.707,-0.019,-29.205,-36.835,19.351
-0.443,-0.703,-0.017,-27.967,-36.139,18.942
-0.455,-0.697,-0.014,-26.433,-34.712,18.532
-0.468,-0.691,-0.012,-24.831,-32.558,18.089
-0.480,-0.684,-0.010,-23.276,-30.265,17.637
-0.493,-0.677,-0.008,-21.849,-28.113,17.188
-0.504,-0.672,-0.007,-20.500,-26.214,16.753
-0.515,-0.667,-0.007,-19.196,-24.631,16.342
-0.525,-0.663,-0.007,-17.910,-23.195,15.951
-0.534,-0.660,-0.008,-16.513,-21.773,15.602
-0.543,-0.657,-0.009,-15.031,-20.336,15.283
-0.551,-0.654,-0.011,-13.497,-18.893,14.948
-0.559,-0.650,-0.014,-11.949,-17.436,14.619
-0.567,-0.646,-0.017,-10.450,-16.147,14.278
-0.576,-0.641,-0.020,-9.164,-15.039,13.843
-0.585,-0.635,-0.023,-8.254,-14.060,13.326
-0.593,-0.630,-0.026,-7.627,-13.281,12.731
-0.602,-0.626,-0.028,-7.229,-12.679,12.017
-0.610,-0.623,-0.030,-7.016,-12.199,11.299
-0.618,-0.621,-0.031,-6.813,-11.788,10.661
-0.625,-0.621,-0.032,-6.543,-11.359,10.184
-0.632,-0.621,-0.033,-6.080,-10.838,9.863
-0.638,-0.620,-0.033,-5.455,-10.202,9.656
-0.645,-0.619,-0.033,-4.746,-9.507,9.507
-0.652,-0.617,-0.033,-4.028,-8.745,9.347
-0.658,-0.614,-0.034,-3.346,-7.845,9.204
-0.664,-0.611,-0.035,-2.638,-6.852,9.105
-0.671,-0.608,-0.036,-2.004,-5.878,8.991
-0.677,-0.604,-0.036,-1.586,-4.983,8.811
-0.683,-0.602,-0.037,-1.323,-4.273,8.597
-0.689,-0.599,-0.039,-1.175,-3.811,8.363
-0.694,-0.597,-0.040,-1.139,-3.588,8.114
-0.699,-0.595,-0.042,-1.127,-3.617,7.880
-0.703,-0.594,-0.042,-1.090,-3.739,7.676
-0.707,-0.593,-0.044,-0.952,-3.843,7.563
-0.711,-0.592,-0.045,-0.697,-3.946,7.507
-0.715,-0.591,-0.046,-0.325,-4.086,7.484
-0.720,-0.588,-0.046,0.063,-4.277,7.447
-0.724,-0.586,-0.045,0.319,-4.523,7.350
-0.728,-0.583,-0.045,0.503,-4.853,7.179
-0.732,-0.581,-0.045,0.626,-5.193,6.947
-0.735,-0.580,-0.044,0.757,-5.489,6.697
-0.738,-0.579,-0.043,0.956,-5.717,6.442
-0.741,-0.578,-0.042,1.241,-5.819,6.183
-0.743,-0.578,-0.040,1.602,-5.749,6.558
-0.745,-0.578,-0.039,2.110,-5.498,6.374
-0.747,-0.578,-0.037,2.708,-5.068,6.230
-0.749,-0.577,-0.036,3.368,-4.388,6.106
-0.751,-0.577,-0.034,4.095,-3.553,6.019
-0.753,-0.577,-0.032,4.815,-2.615,5.943

0.427,-0.965,-0.538,-7.797,-10.586,6.701
0.434,-0.975,-0.545,-17.444,-18.434,7.676
0.442,-0.985,-0.553,-24.585,-26.550,9.165
0.450,-0.994,-0.564,-29.638,-35.126,11.377
0.459,-1.003,-0.574,-33.120,-44.818,14.857
0.467,-1.008,-0.583,-35.359,-56.153,19.470
0.475,-1.011,-0.590,-37.113,-69.425,25.151
0.480,-1.013,-0.596,-38.535,-82.997,31.513
0.483,-1.014,-0.600,-39.874,-95.731,38.173
0.483,-1.012,-0.603,-41.440,-107.018,44.488
0.480,-1.009,-0.604,-43.511,-116.950,50.112
0.475,-1.006,-0.606,-46.332,-125.718,54.901
0.469,-1.003,-0.608,-49.902,-133.584,58.681
0.461,-1.002,-0.611,-53.338,-140.856,61.910
0.453,-1.002,-0.613,-56.100,-147.806,64.978
0.444,-1.004,-0.615,-57.884,-154.166,68.358
0.436,-1.007,-0.616,-58.308,-160.146,72.751
0.427,-1.010,-0.614,-57.878,-166.156,77.863
0.414,-1.012,-0.609,-57.038,-171.789,83.874
0.399,-1.012,-0.605,-55.563,-176.654,90.926
0.383,-1.009,-0.600,-52.880,-180.883,98.034
0.365,-1.006,-0.592,-49.729,-184.378,104.959
0.346,-0.999,-0.585,-46.689,-186.946,111.763
0.329,-0.990,-0.576,-44.228,-189.066,117.996
0.310,-0.980,-0.565,-42.276,-191.140,123.285
0.290,-0.969,-0.551,-40.709,-193.304,127.616
0.270,-0.958,-0.536,-39.269,-195.385,130.995
0.247,-0.947,-0.518,-38.119,-197.140,133.789
0.223,-0.937,-0.501,-37.162,-198.081,136.357
0.197,-0.926,-0.481,-36.368,-198.627,138.647
0.170,-0.915,-0.460,-35.943,-198.739,140.609
0.143,-0.899,-0.441,-35.783,-198.506,142.475
0.115,-0.882,-0.422,-36.094,-198.102,143.993
0.086,-0.861,-0.402,-37.114,-197.959,144.986
0.056,-0.839,-0.382,-39.184,-198.272,144.849
0.025,-0.813,-0.361,-42.901,-199.239,144.021
-0.007,-0.790,-0.331,-47.908,-201.757,142.438
-0.038,-0.770,-0.301,-54.118,-204.984,140.049
-0.065,-0.754,-0.268,-61.454,-208.201,137.822
-0.091,-0.738,-0.231,-68.689,-210.524,135.585
-0.115,-0.722,-0.192,-75.318,-211.005,133.332
-0.139,-0.703,-0.153,-80.818,-210.039,131.054
-0.164,-0.681,-0.112,-85.274,-207.742,128.811
-0.187,-0.657,-0.073,-88.876,-204.225,125.826
-0.210,-0.633,-0.037,-91.994,-200.620,121.678
-0.229,-0.612,-0.005,-94.120,-194.739,115.632
-0.246,-0.600,0.023,-95.113,-184.408,108.473
-0.260,-0.593,0.045,-94.925,-166.959,100.847
-0.272,-0.591,0.058,-93.604,-144.973,93.535
-0.286,-0.592,0.067,-91.474,-121.055,86.973
-0.302,-0.597,0.072,-86.268,-97.407,80.996
-0.319,-0.601,0.074,-79.110,-75.570,75.869
-0.336,-0.604,0.073,-71.037,-56.805,71.600
-0.354,-0.604,0.070,-64.725,-41.300,68.141
-0.372,-0.602,0.064,-58.256,-29.316,64.978
-0.391,-0.598,0.057,-53.413,-21.895,61.455
-0.409,-0.593,0.046,-50.223,-17.118,57.941
-0.430,-0.589,0.036,-49.016,-14.562,54.247
-0.449,-0.586,0.025,-48.493,-13.508,50.350
-0.466,-0.584,0.014,-48.274,-13.612,46.408
-0.483,-0.585,0.006,-48.199,-14.118,42.716
-0.498,-0.586,0.000,-48.048,-14.737,39.570
-0.511,-0.590,-0.004,-47.562,-15.257,37.002
-0.523,-0.594,-0.007,-46.571,-15.409,35.057
-0.535,-0.597,-0.009,-44.800,-15.165,33.735
-0.547,-0.599,-0.009,-41.773,-14.565,32.938
-0.558,-0.598,-0.011,-38.124,-13.730,32.366
-0.569,-0.595,-0.012,-34.325,-12.832,31.930
-0.579,-0.590,-0.013,-30.801,-12.065,31.482
-0.589,-0.583,-0.014,-28.112,-11.497,30.920
-0.599,-0.576,-0.016,-26.123,-11.165,30.216
-0.607,-0.569,-0.019,-24.727,-10.970,29.342
-0.615,-0.563,-0.021,-23.861,-10.865,28.290
-0.622,-0.558,-0.023,-23.226,-10.774,27.150
-0.629,-0.555,-0.026,-22.614,-10.643,26.031
-0.636,-0.552,-0.028,-21.925,-10.496,25.012
-0.643,-0.551,-0.030,-21.002,-10.255,24.080
-0.650,-0.550,-0.032,-19.877,-9.803,23.247
-0.656,-0.549,-0.036,-18.485,-9.170,22.585
-0.662,-0.547,-0.038,-16.783,-8.524,21.999
-0.669,-0.544,-0.040,-15.128,-7.930,21.383
-0.676,-0.542,-0.042,-13.634,-7.386,20.706
-0.682,-0.540,-0.043,-12.347,-6.867,19.965
-0.688,-0.538,-0.045,-11.274,-6.292,19.230
-0.694,-0.536,-0.047,-10.280,-5.636,18.545
-0.700,-0.534,-0.049,-9.348,-4.946,17.889
-0.706,-0.532,-0.052,-8.526,-4.268,17.258
-0.712,-0.530,-0.053,-7.813,-3.692,16.630
-0.718,-0.528,-0.055,-7.219,-3.194,15.972
-0.723,-0.526,-0.057,-6.740,-2.734,15.321
-0.727,-0.525,-0.059,-6.276,-2.274,14.743
-0.732,-0.524,-0.060,-5.739,-1.851,14.258
-0.737,-0.523,-0.062,-5.162,-1.445,13.823
-0.741,-0.522,-0.063,-4.621,-1.065,13.430
-0.745,-0.521,-0.065,-4.143,-0.782,13.066
-0.749,-0.519,-0.066,-3.727,-0.662,12.701
-0.754,-0.518,-0.067,-3.389,-0.717,12.316
-0.758,-0.516,-0.068,-3.154,-0.971,11.911
-0.762,-0.515,-0.068,-2.990,-1.392,11.482
-0.766,-0.514,-0.068,-2.861,-1.854,11.031
-0.770,-0.514,-0.068,-2.717,-2.289,10.580
-0.774,-0.514,-0.068,-2.517,-2.649,10.153
-0.777,-0.513,-0.068,-2.225,-2.937,9.753
-0.780,-0.513,-0.068,-1.770,-3.141,9.392
-0.782,-0.512,-0.068,-1.218,-3.239,9.038
-0.785,-0.511,-0.067,-0.594,-3.254,8.690
-0.788,-0.510,-0.066,0.070,-3.202,8.326
-0.790,-0.507,-0.064,0.733,-3.093,7.913
-0.794,-0.505,-0.062,1.368,-2.915,7.442
-0.797,-0.502,-0.059,1.951,-2.689,6.874
-0.800,-0.500,-0.055,2.430,-2.393,6.235
-0.803,-0.498,-0.052,2.852,-1.940,5.532
-0.805,-0.496,-0.048,3.277,-1.315,4.794
-0.808,-0.494,-0.045,3.785,-0.524,4.004
-0.810,-0.494,-0.042,4.359,0.558,3.204
-0.811,-0.495,-0.041,5.133,2.283,2.518
-0.812,-0.496,-0.040,6.182,4.365,1.966
-0.813,-0.497,-0.040,7.571,6.658,1.540
-0.815,-0.499,-0.039,9.106,9.001,1.188

0.240,-0.975,-0.729,4.525,-2.349,3.283
0.255,-0.980,-0.741,0.146,-16.011,5.879
0.273,-0.985,-0.754,-4.294,-32.781,9.033
0.292,-0.990,-0.765,-8.779,-51.323,12.948
0.310,-0.994,-0.773,-13.505,-71.125,17.362
0.327,-0.997,-0.783,-18.375,-91.201,22.119
0.344,-1.001,-0.791,-23.358,-109.868,27.024
0.360,-1.006,-0.800,-28.569,-126.902,31.962
0.375,-1.008,-0.809,-34.302,-142.477,36.717
0.388,-1.009,-0.819,-40.261,-157.187,41.135
0.400,-1.011,-0.828,-45.792,-171.810,45.252
0.411,-1.014,-0.835,-50.061,-186.210,49.315
0.418,-1.017,-0.840,-52.873,-200.169,53.909
0.424,-1.019,-0.844,-54.549,-214.443,59.224
0.428,-1.019,-0.845,-55.354,-228.824,65.163
0.428,-1.015,-0.843,-55.430,-243.729,71.421
0.426,-1.010,-0.839,-54.955,-258.504,77.389
0.422,-1.004,-0.833,-54.280,-271.670,83.153
0.415,-0.997,-0.822,-53.257,-283.098,88.381
0.404,-0.990,-0.806,-51.605,-293.090,93.105
0.388,-0.982,-0.786,-48.990,-301.533,97.566
0.371,-0.975,-0.762,-45.777,-308.240,101.873
0.351,-0.965,-0.736,-42.536,-312.334,106.067
0.330,-0.953,-0.708,-39.509,-314.921,109.851
0.309,-0.938,-0.680,-37.129,-316.465,112.668
0.291,-0.923,-0.652,-35.220,-316.210,115.112
0.264,-0.901,-0.625,-33.948,-315.531,117.605
0.237,-0.880,-0.595,-33.590,-315.345,119.424
0.210,-0.861,-0.564,-33.747,-316.245,120.792
0.182,-0.842,-0.525,-34.564,-319.783,121.790
0.154,-0.827,-0.483,-35.814,-325.301,122.375
0.129,-0.821,-0.435,-37.258,-331.864,122.615
0.106,-0.812,-0.380,-38.392,-337.924,122.889
0.084,-0.799,-0.317,-39.315,-342.117,123.157
0.062,-0.779,-0.246,-39.969,-344.044,122.902
0.040,-0.751,-0.160,-40.885,-340.996,121.957
0.020,-0.715,-0.078,-43.212,-333.741,120.422
0.004,-0.676,-0.010,-45.573,-325.771,118.456
-0.008,-0.642,0.044,-47.392,-307.655,112.388
-0.018,-0.621,0.086,-47.916,-274.469,103.433
-0.028,-0.610,0.112,-47.133,-226.153,93.664
-0.043,-0.608,0.129,-43.809,-177.851,84.742
-0.062,-0.612,0.141,-37.376,-134.142,78.942
-0.084,-0.616,0.144,-28.092,-97.046,75.439
-0.107,-0.621,0.141,-15.916,-65.595,72.607
-0.133,-0.625,0.130,-4.658,-39.444,69.753
-0.157,-0.622,0.115,2.784,-17.909,67.044
-0.179,-0.617,0.098,6.640,-2.006,63.995
-0.201,-0.611,0.077,7.940,7.075,60.754
-0.221,-0.609,0.058,7.978,11.761,56.878
-0.246,-0.604,0.038,7.506,13.454,52.861
-0.275,-0.598,0.022,6.379,13.248,48.926
-0.305,-0.593,0.012,4.888,11.978,45.287
-0.333,-0.591,0.006,3.535,10.200,42.167
-0.356,-0.589,0.005,2.698,8.315,39.724
-0.376,-0.587,0.008,2.326,6.541,37.906
-0.394,-0.585,0.013,2.584,5.042,36.433
-0.411,-0.582,0.021,3.673,4.062,35.147
-0.426,-0.576,0.029,4.946,3.891,33.832
-0.441,-0.567,0.037,5.923,4.598,32.349
-0.455,-0.557,0.044,6.337,5.969,30.604
-0.469,-0.548,0.048,6.262,7.254,28.686
-0.483,-0.543,0.050,5.942,8.046,26.818
-0.495,-0.541,0.049,5.587,8.232,25.304
-0.508,-0.541,0.047,5.317,8.010,24.082
-0.519,-0.542,0.043,5.186,7.606,23.144
-0.529,-0.543,0.039,5.197,7.267,22.444
-0.539,-0.544,0.034,5.346,6.963,21.883
-0.549,-0.543,0.029,5.494,6.617,21.320
-0.560,-0.541,0.024,5.512,6.148,20.691
-0.570,-0.538,0.020,5.392,5.522,19.977
-0.581,-0.535,0.014,5.128,4.738,19.189
-0.590,-0.531,0.010,4.849,3.876,18.382
-0.600,-0.528,0.006,4.560,2.983,17.536
-0.609,-0.524,0.003,4.224,2.140,16.634
-0.618,-0.522,0.001,3.918,1.372,15.712
-0.627,-0.519,-0.000,3.653,0.686,14.794
-0.635,-0.517,-0.000,3.465,0.086,13.888
-0.642,-0.515,-0.000,3.395,-0.349,12.992
-0.649,-0.514,-0.000,3.478,-0.550,12.201
-0.656,-0.514,0.000,3.742,-0.502,11.547
-0.663,-0.513,0.001,4.167,-0.299,10.998
-0.670,-0.513,0.002,4.748,-0.002,10.512
-0.677,-0.512,0.003,5.395,0.333,10.098
-0.683,-0.510,0.005,5.941,0.712,9.708
-0.689,-0.508,0.005,6.366,1.144,9.325
-0.695,-0.505,0.005,6.682,1.649,8.939
-0.701,-0.503,0.005,6.894,2.159,8.554
-0.707,-0.500,0.004,6.897,2.620,8.113
-0.713,-0.498,0.003,6.598,3.023,7.630
-0.718,-0.496,0.002,6.151,3.211,7.118
-0.723,-0.496,0.001,5.599,3.001,6.593
-0.729,-0.496,-0.001,4.980,2.564,6.095
-0.735,-0.497,-0.002,4.354,2.012,5.715
-0.739,-0.499,-0.003,3.800,1.382,5.451
-0.744,-0.501,-0.004,3.365,0.703,5.262
-0.749,-0.503,-0.005,3.067,0.022,5.122
-0.754,-0.503,-0.006,2.870,-0.618,5.013
-0.758,-0.502,-0.007,2.736,-1.197,4.910
-0.762,-0.500,-0.007,2.597,-1.718,4.770
-0.766,-0.498,-0.007,2.421,-2.203,4.557
-0.770,-0.497,-0.006,2.200,-2.666,4.247
-0.774,-0.495,-0.006,1.940,-3.089,3.902
-0.777,-0.494,-0.005,1.686,-3.428,3.536
-0.781,-0.493,-0.005,1.459,-3.693,3.170
-0.784,-0.493,-0.004,1.327,-3.879,2.824
-0.787,-0.493,-0.003,1.282,-3.982,2.516
-0.790,-0.494,-0.002,1.330,-4.011,2.263
-0.793,-0.494,-0.001,1.448,-4.047,2.053
-0.796,-0.494,-0.000,1.592,-4.079,1.894
-0.798,-0.494,0.001,1.753,-4.118,1.763
-0.800,-0.495,0.002,1.938,-4.168,1.665
-0.802,-0.495,0.004,2.145,-4.204,1.599
-0.804,-0.495,0.005,2.384,-4.194,1.574
-0.806,-0.494,0.006,2.611,-4.166,1.551
-0.808,-0.494,0.007,2.807,-4.140,1.514
-0.810,-0.493,0.008,2.997,-4.121,1.468
-0.812,-0.492,0.010,3.203,-4.118,1.402
-0.814,-0.492,0.011,3.427,-4.084,1.320

0.361,-0.917,-0.655,1.182,-11.611,1.927
0.368,-0.927,-0.663,0.389,-19.301,2.844
0.375,-0.934,-0.672,-0.099,-27.788,4.068
0.383,-0.940,-0.684,-0.543,-36.994,5.739
0.392,-0.943,-0.695,-0.985,-48.800,7.970
0.400,-0.942,-0.704,-1.480,-62.895,11.084
0.409,-0.935,-0.710,-2.299,-79.265,14.634
0.420,-0.928,-0.715,-3.945,-99.962,18.340
0.432,-0.924,-0.718,-7.142,-117.953,21.929
0.443,-0.923,-0.720,-12.797,-134.247,25.145
0.452,-0.927,-0.722,-19.441,-148.675,28.123
0.454,-0.933,-0.723,-26.052,-161.652,31.092
0.456,-0.938,-0.722,-31.877,-173.460,34.160
0.456,-0.944,-0.721,-36.307,-184.103,37.593
0.455,-0.950,-0.721,-39.334,-193.743,41.362
0.451,-0.956,-0.719,-41.004,-203.142,45.443
0.445,-0.961,-0.715,-41.901,-211.928,50.006
0.438,-0.964,-0.711,-42.191,-219.905,55.412
0.431,-0.965,-0.706,-42.226,-227.173,61.066
0.422,-0.963,-0.697,-42.096,-234.152,66.875
0.411,-0.958,-0.687,-42.004,-240.625,72.463
0.400,-0.951,-0.675,-42.243,-246.582,77.552
0.387,-0.944,-0.659,-42.937,-251.412,82.007
0.373,-0.937,-0.644,-43.828,-255.554,85.790
0.356,-0.931,-0.626,-44.650,-258.952,88.902
0.336,-0.925,-0.607,-45.389,-261.350,91.743
0.313,-0.919,-0.586,-46.046,-262.190,94.484
0.287,-0.912,-0.564,-46.620,-262.050,97.071
0.260,-0.902,-0.541,-47.121,-261.463,99.221
0.232,-0.892,-0.518,-47.708,-260.906,100.800
0.204,-0.881,-0.493,-48.565,-260.596,101.969
0.177,-0.868,-0.469,-50.217,-260.468,102.595
0.151,-0.854,-0.445,-52.404,-260.525,102.761
0.126,-0.840,-0.421,-55.278,-260.900,102.353
0.100,-0.825,-0.394,-58.832,-261.355,101.532
0.075,-0.809,-0.363,-63.545,-261.926,100.285
0.048,-0.796,-0.327,-69.050,-262.449,98.832
0.022,-0.788,-0.282,-75.222,-262.284,96.946
-0.003,-0.784,-0.236,-81.225,-260.985,94.634
-0.027,-0.787,-0.188,-85.779,-258.103,92.029
-0.049,-0.792,-0.141,-88.363,-253.236,89.404
-0.069,-0.797,-0.097,-88.997,-247.945,86.801
-0.088,-0.801,-0.057,-88.085,-243.126,84.130
-0.107,-0.801,-0.020,-86.646,-233.547,81.374
-0.127,-0.799,0.010,-85.028,-216.981,78.522
-0.148,-0.795,0.036,-82.877,-196.248,75.615
-0.170,-0.792,0.058,-80.079,-172.740,72.924
-0.192,-0.788,0.076,-76.811,-144.794,70.543
-0.214,-0.784,0.089,-73.071,-119.783,68.546
-0.236,-0.781,0.097,-68.707,-97.084,67.083
-0.258,-0.776,0.102,-64.257,-78.742,66.010
-0.283,-0.771,0.101,-60.068,-67.496,65.011
-0.307,-0.764,0.099,-56.454,-61.112,63.687
-0.329,-0.754,0.096,-54.120,-57.835,61.401
-0.348,-0.744,0.093,-52.736,-55.955,58.273
-0.364,-0.736,0.089,-51.947,-54.201,54.540
-0.377,-0.729,0.086,-51.304,-51.773,50.522
-0.389,-0.727,0.081,-50.511,-48.212,46.616
-0.401,-0.726,0.076,-49.221,-41.897,43.257
-0.413,-0.726,0.070,-47.276,-36.250,40.499
-0.425,-0.725,0.063,-44.737,-30.594,38.298
-0.438,-0.722,0.056,-41.729,-25.400,36.379
-0.451,-0.717,0.048,-38.776,-21.218,34.603
-0.464,-0.711,0.042,-36.232,-17.972,32.846
-0.477,-0.705,0.036,-34.407,-15.474,31.038
-0.489,-0.698,0.031,-33.086,-13.553,29.316
-0.501,-0.693,0.025,-32.071,-12.226,27.754
-0.513,-0.689,0.020,-31.230,-11.337,26.421
-0.524,-0.685,0.015,-30.468,-10.803,25.425
-0.534,-0.681,0.010,-29.699,-10.580,24.683
-0.544,-0.677,0.006,-28.909,-10.709,24.126
-0.553,-0.673,0.003,-28.146,-11.012,23.686
-0.562,-0.667,0.001,-27.515,-11.374,23.269
-0.571,-0.661,-0.001,-27.006,-11.682,22.861
-0.578,-0.655,-0.002,-26.607,-11.837,22.426
-0.586,-0.650,-0.002,-26.303,-11.784,21.961
-0.593,-0.644,-0.002,-26.052,-11.491,21.455
-0.599,-0.640,-0.003,-25.846,-10.750,20.902
-0.606,-0.637,-0.005,-25.614,-9.694,20.349
-0.612,-0.634,-0.007,-25.302,-8.411,19.787
-0.618,-0.632,-0.009,-24.925,-6.754,19.255
-0.624,-0.630,-0.012,-24.405,-4.880,18.842
-0.630,-0.629,-0.015,-23.616,-2.866,18.522
-0.635,-0.628,-0.018,-22.641,-0.613,18.291
-0.641,-0.626,-0.021,-21.559,1.733,18.120
-0.648,-0.623,-0.023,-20.504,4.043,17.960
-0.654,-0.619,-0.026,-19.668,6.215,17.763
-0.661,-0.616,-0.028,-19.048,8.022,17.481
-0.668,-0.613,-0.031,-18.602,9.437,17.124
-0.674,-0.611,-0.034,-18.249,10.459,16.717
-0.680,-0.609,-0.036,-17.925,11.146,16.333
-0.686,-0.609,-0.038,-17.556,11.565,16.014
-0.691,-0.608,-0.040,-17.090,11.872,15.770
-0.696,-0.607,-0.041,-16.458,12.133,15.636
-0.700,-0.606,-0.043,-15.701,12.388,15.555
-0.705,-0.605,-0.044,-14.889,12.648,15.498
-0.710,-0.602,-0.045,-14.046,12.924,15.441
-0.715,-0.599,-0.045,-13.225,13.223,15.333
-0.719,-0.594,-0.045,-12.485,13.548,15.159
-0.724,-0.589,-0.044,-11.871,13.967,14.906
-0.728,-0.583,-0.043,-11.394,14.405,14.531
-0.733,-0.578,-0.041,-11.074,14.875,13.879
-0.737,-0.573,-0.038,-10.814,15.425,13.081
-0.739,-0.570,-0.036,-10.529,16.242,12.199
-0.742,-0.569,-0.033,-9.991,17.328,11.274
-0.744,-0.568,-0.030,-9.129,18.753,10.363
-0.747,-0.568,-0.026,-7.862,20.819,9.552
-0.750,-0.568,-0.022,-6.156,23.402,8.846
-0.753,-0.567,-0.018,-3.937,26.433,8.189
-0.756,-0.565,-0.013,-1.492,29.739,7.512
-0.760,-0.561,-0.008,0.912,33.157,6.737
-0.764,-0.557,-0.002,3.052,36.499,5.777
-0.768,-0.551,0.003,4.777,39.780,4.556
-0.772,-0.546,0.008,6.008,43.033,2.916
-0.776,-0.542,0.013,6.957,46.377,0.997
-0.781,-0.538,0.017,7.722,49.958,-1.105
-0.784,-0.534,0.019,8.406,54.106,-3.317
-0.787,-0.532,0.021,9.096,58.659,-5.558
-0.789,-0.531,0.021,9.903,63.614,-7.736

0.560,-0.780,-0.655,16.621,94.127,-11.518
0.604,-0.802,-0.663,25.991,121.932,-13.860
0.640,-0.812,-0.668,35.229,146.164,-14.590
0.666,-0.811,-0.683,41.988,170.575,-14.492
0.685,-0.804,-0.718,45.609,197.398,-14.423
0.693,-0.793,-0.757,45.493,217.556,-14.665
0.683,-0.778,-0.789,40.815,224.595,-15.177
0.660,-0.770,-0.812,30.383,218.001,-16.556
0.636,-0.770,-0.828,18.866,209.411,-18.433
0.621,-0.779,-0.833,9.681,195.346,-19.697
0.616,-0.792,-0.831,5.078,177.434,-19.720
0.616,-0.806,-0.824,4.658,160.409,-18.597
0.617,-0.817,-0.821,6.507,147.379,-17.176
0.616,-0.823,-0.824,10.809,139.138,-15.227
0.612,-0.824,-0.835,15.274,133.600,-13.173
0.606,-0.819,-0.850,17.684,128.416,-11.524
0.599,-0.811,-0.868,18.024,121.996,-10.343
0.593,-0.802,-0.885,17.049,112.989,-9.391
0.590,-0.795,-0.899,12.746,101.124,-8.653
0.589,-0.791,-0.911,6.833,86.760,-8.023
0.591,-0.791,-0.920,-0.092,68.149,-7.358
0.594,-0.794,-0.926,-6.847,51.379,-6.508
0.597,-0.799,-0.932,-12.865,35.129,-5.399
0.600,-0.805,-0.938,-17.650,19.318,-3.982
0.600,-0.810,-0.942,-21.301,2.556,-2.443
0.598,-0.813,-0.946,-24.301,-14.587,-0.863
0.596,-0.816,-0.950,-26.958,-31.633,0.827
0.595,-0.819,-0.954,-29.210,-48.457,2.571
0.594,-0.822,-0.957,-30.948,-65.541,4.405
0.594,-0.825,-0.960,-32.152,-82.044,6.441
0.594,-0.828,-0.963,-32.751,-97.502,8.944
0.595,-0.831,-0.966,-33.025,-112.013,11.748
0.595,-0.833,-0.970,-33.118,-125.415,14.779
0.595,-0.833,-0.974,-33.234,-137.875,17.979
0.593,-0.832,-0.978,-33.505,-149.682,21.166
0.589,-0.828,-0.982,-34.146,-161.238,24.074
0.585,-0.823,-0.984,-34.969,-173.339,26.663
0.579,-0.819,-0.984,-35.780,-185.819,29.002
0.573,-0.815,-0.982,-36.561,-198.422,31.187
0.566,-0.811,-0.977,-37.043,-210.915,33.304
0.558,-0.808,-0.967,-37.047,-223.763,35.210
0.547,-0.807,-0.957,-36.643,-235.050,36.963
0.536,-0.805,-0.947,-35.338,-243.881,38.791
0.525,-0.810,-0.929,-33.184,-250.300,39.784
0.513,-0.807,-0.912,-29.229,-253.265,41.174
0.484,-0.795,-0.894,-25.014,-254.166,43.637
0.457,-0.787,-0.874,-21.348,-254.239,46.045
0.432,-0.778,-0.851,-18.211,-254.691,48.190
0.406,-0.767,-0.828,-15.662,-255.635,50.218
0.380,-0.753,-0.804,-13.708,-257.053,51.944
0.354,-0.736,-0.779,-12.646,-258.846,53.117
0.330,-0.721,-0.752,-12.300,-260.701,53.628
0.307,-0.705,-0.724,-12.473,-262.246,53.706
0.283,-0.688,-0.692,-13.292,-263.926,53.251
0.260,-0.674,-0.657,-15.051,-265.731,52.137
0.239,-0.663,-0.622,-17.147,-266.687,50.571
0.215,-0.655,-0.585,-19.484,-266.492,49.127
0.188,-0.649,-0.544,-22.006,-265.191,47.968
0.162,-0.648,-0.504,-23.922,-262.850,47.017
0.134,-0.647,-0.465,-25.091,-259.314,46.280
0.103,-0.646,-0.425,-25.731,-255.224,45.870
0.070,-0.643,-0.386,-26.033,-250.829,45.786
0.040,-0.638,-0.349,-26.014,-246.313,45.822
0.010,-0.629,-0.312,-25.760,-241.809,45.834
-0.022,-0.619,-0.272,-25.409,-237.367,45.584
-0.050,-0.606,-0.240,-25.074,-232.699,45.252
-0.073,-0.592,-0.205,-24.667,-228.124,44.967
-0.099,-0.585,-0.156,-24.196,-224.126,44.559
-0.127,-0.582,-0.113,-23.456,-217.236,44.315
-0.153,-0.580,-0.080,-21.170,-205.725,44.202
-0.177,-0.578,-0.058,-17.858,-187.339,44.136
-0.199,-0.575,-0.045,-14.447,-165.030,43.896
-0.219,-0.570,-0.042,-11.529,-141.580,42.866
-0.237,-0.565,-0.043,-9.211,-119.840,41.042
-0.257,-0.561,-0.048,-7.525,-102.322,38.677
-0.280,-0.559,-0.054,-6.244,-86.278,37.152
-0.302,-0.559,-0.064,-4.837,-73.414,35.368
-0.326,-0.560,-0.073,-3.116,-64.837,34.256
-0.350,-0.561,-0.082,-1.005,-59.106,33.585
-0.372,-0.559,-0.091,1.257,-55.306,33.195
-0.392,-0.553,-0.097,3.104,-52.770,32.793
-0.411,-0.546,-0.099,4.172,-51.024,32.227
-0.427,-0.538,-0.096,4.496,-49.437,31.402
-0.442,-0.531,-0.092,4.172,-47.646,30.213
-0.456,-0.525,-0.086,3.643,-45.407,28.906
-0.468,-0.521,-0.081,3.050,-42.357,27.547
-0.479,-0.517,-0.077,2.461,-38.734,26.147
-0.490,-0.514,-0.074,1.916,-34.554,24.647
-0.500,-0.512,-0.074,1.470,-30.110,23.197
-0.510,-0.511,-0.079,1.117,-25.660,21.796
-0.519,-0.510,-0.082,0.918,-21.562,20.508
-0.529,-0.509,-0.087,0.949,-18.097,19.416
-0.539,-0.508,-0.091,1.109,-15.409,18.500
-0.549,-0.506,-0.095,1.328,-13.813,17.717
-0.559,-0.503,-0.100,1.464,-13.023,17.010
-0.569,-0.499,-0.104,1.404,-12.923,16.341
-0.579,-0.496,-0.107,1.169,-13.407,15.661
-0.588,-0.493,-0.109,0.793,-14.298,14.938
-0.597,-0.491,-0.111,0.293,-15.253,14.165
-0.606,-0.489,-0.111,-0.218,-16.100,13.422
-0.613,-0.488,-0.111,-0.671,-16.583,12.726
-0.620,-0.488,-0.110,-1.018,-16.609,12.124
-0.627,-0.488,-0.108,-1.148,-16.086,11.676
-0.634,-0.488,-0.107,-1.056,-14.842,11.377
-0.641,-0.488,-0.107,-0.719,-13.243,11.197
-0.648,-0.487,-0.106,-0.200,-11.491,11.088
-0.656,-0.485,-0.106,0.277,-9.749,10.974
-0.665,-0.482,-0.106,0.655,-8.203,10.826
-0.673,-0.479,-0.107,0.923,-6.975,10.608
-0.681,-0.477,-0.108,1.043,-6.063,10.310
-0.689,-0.475,-0.109,1.087,-5.443,9.988
-0.696,-0.474,-0.111,1.102,-5.172,9.673
-0.703,-0.473,-0.113,1.132,-5.147,9.404
-0.710,-0.473,-0.115,1.222,-5.345,9.198
-0.717,-0.473,-0.117,1.359,-5.738,9.064
-0.723,-0.473,-0.118,1.513,-6.386,8.985
-0.729,-0.473,-0.118,1.668,-7.160,8.921
-0.735,-0.473,-0.119,1.856,-8.004,8.906
-0.740,-0.473,-0.118,2.059,-8.893,8.924

0.301,-0.864,-0.786,9.589,4.445,6.136
0.314,-0.871,-0.794,17.454,15.696,4.362
0.324,-0.877,-0.804,25.075,24.799,3.504
0.333,-0.879,-0.817,31.728,31.649,3.122
0.339,-0.879,-0.832,36.917,35.983,3.060
0.343,-0.878,-0.849,40.258,37.185,3.219
0.347,-0.877,-0.866,41.871,36.308,3.550
0.351,-0.875,-0.880,41.981,34.091,4.060
0.356,-0.874,-0.892,41.046,31.513,4.778
0.363,-0.875,-0.905,39.546,27.657,5.560
0.371,-0.876,-0.918,37.423,22.117,6.414
0.380,-0.878,-0.932,34.639,14.505,7.320
0.390,-0.881,-0.948,31.408,5.122,8.271
0.400,-0.883,-0.964,27.950,-6.165,9.303
0.410,-0.885,-0.979,24.737,-19.474,10.551
0.419,-0.888,-0.992,22.166,-34.733,12.094
0.429,-0.891,-1.006,20.346,-51.075,14.027
0.439,-0.895,-1.019,19.121,-68.246,16.587
0.450,-0.898,-1.030,18.443,-85.256,19.734
0.461,-0.900,-1.039,17.919,-101.598,23.661
0.472,-0.901,-1.047,17.438,-118.881,28.236
0.481,-0.901,-1.051,17.053,-137.505,33.226
0.487,-0.901,-1.051,16.872,-156.609,38.307
0.491,-0.901,-1.048,16.723,-175.544,43.640
0.491,-0.899,-1.043,16.424,-192.755,49.168
0.490,-0.894,-1.036,15.808,-208.388,54.591
0.486,-0.888,-1.025,15.040,-223.243,59.179
0.478,-0.880,-1.012,14.124,-237.381,62.994
0.468,-0.871,-0.996,12.710,-250.491,65.996
0.455,-0.862,-0.977,11.015,-262.472,68.282
0.440,-0.853,-0.956,8.962,-273.247,69.942
0.423,-0.845,-0.933,6.389,-282.606,71.101
0.406,-0.838,-0.910,3.271,-290.813,71.733
0.389,-0.831,-0.885,-0.095,-298.173,71.976
0.372,-0.824,-0.860,-3.652,-304.289,72.026
0.355,-0.818,-0.834,-7.271,-309.405,72.011
0.339,-0.811,-0.808,-10.767,-313.320,71.952
0.322,-0.803,-0.782,-14.189,-316.137,71.764
0.304,-0.796,-0.756,-17.218,-318.134,71.481
0.285,-0.791,-0.727,-20.151,-319.641,71.101
0.266,-0.790,-0.695,-22.880,-320.295,70.763
0.247,-0.790,-0.659,-25.215,-319.612,70.587
0.229,-0.791,-0.620,-27.000,-317.870,70.670
0.209,-0.792,-0.577,-28.184,-315.078,71.085
0.189,-0.790,-0.530,-29.133,-311.325,71.540
0.167,-0.784,-0.482,-30.020,-306.211,71.809
0.142,-0.777,-0.432,-31.074,-300.229,71.799
0.118,-0.768,-0.383,-32.272,-293.785,71.483
0.093,-0.761,-0.336,-33.427,-287.114,71.041
0.068,-0.755,-0.291,-34.188,-280.465,70.621
0.042,-0.750,-0.250,-34.534,-274.085,70.280
0.015,-0.747,-0.210,-34.262,-268.039,70.219
-0.015,-0.744,-0.163,-33.090,-262.228,70.451
-0.042,-0.739,-0.118,-30.862,-256.813,71.383
-0.061,-0.732,-0.087,-26.879,-250.490,72.592
-0.080,-0.722,-0.057,-20.949,-241.378,73.074
-0.102,-0.702,-0.031,-14.686,-229.307,73.100
-0.124,-0.676,-0.014,-10.120,-211.757,72.763
-0.147,-0.650,-0.003,-7.332,-191.944,71.357
-0.169,-0.628,0.002,-6.048,-173.144,69.278
-0.192,-0.610,0.003,-5.414,-157.183,66.120
-0.214,-0.597,0.002,-5.150,-144.690,62.401
-0.237,-0.587,0.000,-5.066,-133.927,58.682
-0.258,-0.581,-0.002,-4.968,-124.236,55.175
-0.277,-0.578,-0.006,-4.710,-115.394,51.994
-0.297,-0.575,-0.007,-4.251,-107.637,48.960
-0.316,-0.572,-0.007,-3.721,-100.492,46.249
-0.335,-0.570,-0.006,-3.403,-93.849,43.763
-0.353,-0.567,-0.003,-3.201,-87.564,41.466
-0.370,-0.565,0.001,-3.054,-81.350,39.457
-0.386,-0.563,0.005,-2.969,-74.989,37.952
-0.401,-0.562,0.009,-2.902,-68.283,36.770
-0.415,-0.562,0.014,-2.751,-61.006,35.851
-0.430,-0.561,0.018,-2.470,-53.555,35.108
-0.446,-0.558,0.022,-2.156,-46.425,34.493
-0.460,-0.553,0.024,-1.881,-39.785,33.877
-0.475,-0.547,0.025,-1.810,-34.207,33.138
-0.491,-0.540,0.023,-1.937,-29.896,32.433
-0.506,-0.535,0.019,-2.202,-27.070,31.789
-0.521,-0.531,0.014,-2.476,-25.668,31.184
-0.537,-0.528,0.009,-2.720,-25.674,30.623
-0.552,-0.525,0.005,-2.931,-26.251,30.156
-0.565,-0.522,0.003,-3.037,-27.073,29.752
-0.576,-0.520,0.004,-3.053,-27.901,29.363
-0.587,-0.517,0.006,-3.081,-28.540,29.007
-0.595,-0.513,0.008,-3.119,-28.863,28.592
-0.603,-0.510,0.010,-3.164,-28.785,28.104
-0.610,-0.507,0.012,-3.235,-28.118,27.560
-0.618,-0.504,0.013,-3.299,-27.127,26.933
-0.626,-0.501,0.014,-3.370,-25.944,26.252
-0.635,-0.498,0.014,-3.438,-24.690,25.560
-0.643,-0.496,0.014,-3.492,-23.419,24.881
-0.650,-0.495,0.015,-3.464,-22.194,24.218
-0.658,-0.493,0.016,-3.373,-20.939,23.567
-0.665,-0.492,0.017,-3.224,-19.518,22.950
-0.671,-0.490,0.017,-3.041,-17.775,22.333
-0.678,-0.487,0.018,-2.864,-15.773,21.723
-0.684,-0.485,0.018,-2.707,-13.670,21.046
-0.691,-0.482,0.018,-2.567,-11.604,20.328
-0.698,-0.479,0.018,-2.459,-9.738,19.590
-0.706,-0.477,0.018,-2.348,-8.136,18.858
-0.713,-0.475,0.019,-2.258,-6.828,18.150
-0.720,-0.473,0.020,-2.174,-5.756,17.480
-0.726,-0.471,0.021,-2.099,-4.936,16.868
-0.732,-0.470,0.021,-2.042,-4.283,16.304
-0.738,-0.469,0.022,-2.005,-3.747,15.789
-0.743,-0.468,0.022,-1.990,-3.321,15.291
-0.749,-0.467,0.022,-2.034,-2.976,14.808
-0.754,-0.466,0.022,-2.125,-2.647,14.342
-0.759,-0.465,0.022,-2.234,-2.373,13.911
-0.764,-0.465,0.022,-2.360,-2.119,13.503
-0.769,-0.465,0.022,-2.472,-1.895,13.140
-0.774,-0.465,0.022,-2.536,-1.715,12.820
-0.778,-0.465,0.024,-2.536,-1.581,12.551
-0.782,-0.465,0.025,-2.503,-1.430,12.321
-0.787,-0.464,0.027,-2.447,-1.205,12.095
-0.791,-0.464,0.029,-2.345,-0.903,11.865
-0.794,-0.462,0.032,-2.219,-0.517,11.620
-0.798,-0.461,0.036,-2.090,-0.027,11.333

0.244,-0.928,-0.750,-0.187,3.107,11.135
0.251,-0.928,-0.761,0.039,4.236,11.320
0.257,-0.925,-0.772,-0.928,3.690,11.676
0.263,-0.920,-0.783,-4.679,2.111,11.999
0.270,-0.917,-0.792,-10.645,-0.202,12.176
0.276,-0.917,-0.798,-18.061,-4.914,12.228
0.284,-0.920,-0.802,-25.447,-10.942,12.314
0.292,-0.927,-0.804,-31.185,-17.435,12.680
0.301,-0.937,-0.806,-35.138,-23.805,13.282
0.310,-0.947,-0.810,-37.667,-30.096,14.333
0.319,-0.955,-0.816,-39.177,-36.743,15.861
0.329,-0.960,-0.823,-40.066,-44.178,18.072
0.338,-0.960,-0.831,-40.621,-52.645,20.739
0.347,-0.958,-0.839,-41.213,-62.234,23.760
0.356,-0.955,-0.847,-42.181,-73.568,26.981
0.364,-0.950,-0.853,-43.597,-86.119,30.145
0.371,-0.946,-0.858,-45.728,-99.417,33.222
0.378,-0.944,-0.861,-48.409,-112.892,36.321
0.383,-0.944,-0.863,-51.333,-126.679,39.391
0.384,-0.945,-0.862,-54.025,-140.032,42.351
0.384,-0.946,-0.861,-56.464,-152.129,45.380
0.383,-0.947,-0.859,-58.459,-162.977,48.408
0.380,-0.946,-0.855,-59.810,-173.074,51.425
0.375,-0.945,-0.847,-60.551,-183.232,54.379
0.367,-0.942,-0.837,-60.879,-192.939,57.431
0.358,-0.937,-0.827,-60.885,-201.519,60.588
0.348,-0.933,-0.816,-60.714,-209.071,63.602
0.334,-0.928,-0.804,-60.430,-215.177,66.360
0.319,-0.923,-0.791,-60.061,-219.941,69.023
0.303,-0.917,-0.778,-59.707,-223.681,71.465
0.285,-0.909,-0.763,-59.494,-226.552,73.504
0.266,-0.900,-0.750,-59.456,-228.253,75.145
0.246,-0.890,-0.736,-59.601,-229.428,76.391
0.226,-0.879,-0.721,-59.857,-230.346,77.121
0.205,-0.867,-0.707,-60.191,-231.059,77.532
0.185,-0.855,-0.692,-60.505,-231.766,77.655
0.163,-0.842,-0.675,-60.870,-232.535,77.499
0.141,-0.828,-0.659,-61.378,-233.300,77.076
0.117,-0.814,-0.642,-62.257,-234.066,76.443
0.092,-0.800,-0.623,-63.606,-234.890,75.600
0.066,-0.788,-0.606,-65.605,-235.347,74.633
0.041,-0.778,-0.588,-67.820,-235.807,73.448
0.015,-0.772,-0.568,-70.064,-236.346,72.229
-0.011,-0.769,-0.546,-71.970,-236.957,71.110
-0.036,-0.767,-0.522,-73.298,-237.312,70.238
-0.060,-0.766,-0.499,-73.962,-237.138,69.632
-0.082,-0.765,-0.474,-73.891,-236.354,69.248
-0.104,-0.761,-0.448,-73.450,-234.867,69.021
-0.125,-0.755,-0.419,-72.741,-232.913,68.929
-0.147,-0.745,-0.389,-71.930,-230.344,68.911
-0.169,-0.733,-0.357,-71.101,-227.135,68.871
-0.190,-0.720,-0.324,-70.177,-223.219,68.839
-0.212,-0.707,-0.289,-69.167,-219.185,68.589
-0.233,-0.695,-0.247,-68.010,-215.297,68.171
-0.252,-0.683,-0.200,-66.795,-210.459,68.130
-0.261,-0.669,-0.177,-64.357,-198.588,68.615
-0.272,-0.651,-0.159,-58.511,-179.254,68.608
-0.292,-0.632,-0.142,-52.074,-155.496,68.131
-0.313,-0.611,-0.129,-47.031,-131.363,67.480
-0.336,-0.591,-0.123,-43.486,-112.024,66.113
-0.359,-0.573,-0.123,-41.321,-98.831,63.942
-0.380,-0.559,-0.131,-39.885,-91.291,61.308
-0.399,-0.550,-0.136,-38.889,-86.170,58.715
-0.418,-0.545,-0.141,-37.846,-82.277,56.502
-0.436,-0.542,-0.145,-36.297,-79.064,54.388
-0.453,-0.538,-0.146,-34.156,-76.277,52.262
-0.469,-0.531,-0.145,-31.836,-73.609,50.175
-0.485,-0.521,-0.142,-29.908,-71.041,48.003
-0.502,-0.511,-0.136,-28.476,-68.341,45.775
-0.517,-0.500,-0.130,-27.532,-65.239,43.565
-0.529,-0.491,-0.127,-26.987,-61.074,41.794
-0.538,-0.484,-0.127,-26.420,-55.597,40.264
-0.550,-0.481,-0.126,-25.763,-48.740,38.849
-0.562,-0.478,-0.125,-25.021,-41.519,37.756
-0.574,-0.475,-0.126,-24.124,-34.658,36.801
-0.586,-0.472,-0.128,-23.109,-28.951,35.891
-0.599,-0.469,-0.132,-22.047,-24.449,35.044
-0.611,-0.465,-0.136,-21.044,-21.074,34.257
-0.623,-0.460,-0.141,-20.155,-18.797,33.472
-0.636,-0.453,-0.144,-19.483,-17.670,32.641
-0.647,-0.447,-0.147,-19.002,-17.203,31.730
-0.658,-0.441,-0.148,-18.647,-17.222,30.817
-0.668,-0.436,-0.147,-18.364,-17.469,29.961
-0.677,-0.430,-0.146,-18.114,-17.706,29.138
-0.686,-0.425,-0.145,-17.852,-17.829,28.258
-0.694,-0.421,-0.144,-17.615,-17.724,27.367
-0.700,-0.418,-0.145,-17.380,-17.232,26.466
-0.707,-0.415,-0.147,-17.080,-16.544,25.502
-0.714,-0.412,-0.149,-16.729,-15.711,24.526
-0.720,-0.409,-0.151,-16.411,-14.793,23.588
-0.728,-0.406,-0.154,-16.108,-13.978,22.675
-0.735,-0.403,-0.156,-15.849,-13.323,21.818
-0.742,-0.401,-0.158,-15.619,-12.864,20.983
-0.749,-0.399,-0.158,-15.342,-12.655,20.162
-0.755,-0.397,-0.158,-14.980,-12.495,19.396
-0.762,-0.395,-0.157,-14.540,-12.250,18.653
-0.767,-0.393,-0.156,-14.071,-11.715,17.901
-0.772,-0.391,-0.154,-13.597,-10.958,17.137
-0.777,-0.388,-0.153,-13.123,-9.998,16.323
-0.783,-0.386,-0.152,-12.664,-8.881,15.477
-0.788,-0.383,-0.152,-12.253,-7.646,14.635
-0.793,-0.380,-0.153,-11.907,-6.468,13.754
-0.798,-0.379,-0.154,-11.608,-5.433,12.884
-0.803,-0.377,-0.155,-11.326,-4.641,12.084
-0.808,-0.376,-0.156,-11.052,-4.063,11.328
-0.813,-0.374,-0.156,-10.827,-3.678,10.612
-0.818,-0.373,-0.155,-10.676,-3.417,9.936
-0.823,-0.371,-0.154,-10.580,-3.217,9.283
-0.827,-0.369,-0.152,-10.543,-3.027,8.641
-0.831,-0.368,-0.150,-10.566,-2.795,7.980
-0.835,-0.366,-0.147,-10.617,-2.465,7.299
-0.839,-0.364,-0.144,-10.670,-2.037,6.602
-0.843,-0.363,-0.140,-10.679,-1.483,5.862
-0.847,-0.361,-0.136,-10.634,-0.740,5.134
-0.850,-0.360,-0.133,-10.487,0.311,4.400
-0.853,-0.360,-0.129,-10.214,1.626,3.663
-0.856,-0.359,-0.125,-9.834,3.238,2.944
-0.858,-0.359,-0.121,-9.269,5.184,2.261
-0.860,-0.359,-0.116,-8.562,7.470,1.594

0.201,-0.979,-0.746,-11.532,0.276,3.331
0.212,-0.984,-0.753,-14.578,-8.363,5.635
0.224,-0.990,-0.759,-17.638,-19.156,8.611
0.238,-0.995,-0.763,-20.636,-31.510,12.288
0.252,-0.995,-0.766,-23.607,-45.077,16.868
0.265,-0.998,-0.768,-26.482,-59.381,21.861
0.278,-1.000,-0.769,-29.436,-74.047,26.997
0.290,-1.002,-0.772,-32.524,-87.822,32.012
0.299,-1.003,-0.775,-35.813,-100.512,36.545
0.307,-1.004,-0.779,-39.029,-112.270,40.535
0.312,-1.004,-0.782,-42.107,-123.142,44.099
0.316,-1.005,-0.784,-44.763,-133.092,47.409
0.319,-1.006,-0.784,-46.771,-142.307,50.596
0.321,-1.006,-0.782,-47.810,-151.101,54.045
0.319,-1.005,-0.779,-48.006,-160.086,57.832
0.314,-1.002,-0.773,-47.562,-169.499,61.875
0.307,-0.997,-0.765,-46.813,-178.448,67.888
0.300,-0.990,-0.756,-45.562,-186.956,72.726
0.291,-0.981,-0.746,-44.211,-194.856,77.258
0.280,-0.973,-0.734,-42.940,-201.570,81.346
0.269,-0.964,-0.722,-41.688,-207.267,84.840
0.255,-0.956,-0.707,-40.389,-211.853,87.575
0.241,-0.947,-0.693,-38.993,-215.103,90.011
0.225,-0.939,-0.678,-37.414,-217.388,92.170
0.207,-0.932,-0.660,-35.454,-218.804,94.127
0.189,-0.925,-0.641,-33.169,-219.663,96.090
0.170,-0.917,-0.620,-30.516,-220.031,98.499
0.151,-0.909,-0.599,-27.962,-220.092,101.126
0.131,-0.900,-0.576,-25.670,-219.996,103.825
0.111,-0.890,-0.553,-23.904,-219.784,106.294
0.091,-0.879,-0.532,-22.623,-219.383,108.123
0.071,-0.866,-0.513,-21.661,-218.586,109.722
0.050,-0.853,-0.494,-21.131,-217.458,111.105
0.028,-0.838,-0.474,-21.044,-216.018,111.958
0.006,-0.822,-0.455,-21.351,-214.321,112.180
-0.010,-0.805,-0.435,-22.158,-212.227,112.409
-0.036,-0.785,-0.415,-23.750,-210.107,112.430
-0.063,-0.769,-0.393,-26.193,-208.357,111.937
-0.088,-0.754,-0.369,-29.281,-206.764,111.058
-0.112,-0.740,-0.345,-32.920,-205.276,110.079
-0.136,-0.727,-0.319,-36.768,-203.621,109.069
-0.160,-0.713,-0.292,-40.329,-201.758,108.075
-0.184,-0.700,-0.264,-43.520,-199.638,107.013
-0.207,-0.685,-0.235,-46.061,-197.149,105.899
-0.230,-0.669,-0.203,-48.164,-194.262,104.641
-0.253,-0.654,-0.170,-49.702,-191.235,103.247
-0.274,-0.639,-0.136,-50.342,-188.299,101.718
-0.294,-0.625,-0.103,-50.308,-183.106,100.155
-0.312,-0.612,-0.073,-49.704,-175.083,98.378
-0.328,-0.598,-0.046,-48.170,-163.246,96.197
-0.343,-0.585,-0.028,-45.508,-146.659,93.874
-0.356,-0.572,-0.019,-41.426,-123.936,91.598
-0.371,-0.561,-0.015,-36.209,-99.455,89.456
-0.387,-0.549,-0.015,-30.150,-75.812,87.387
-0.404,-0.537,-0.017,-24.177,-56.411,84.855
-0.421,-0.524,-0.023,-19.245,-41.291,82.358
-0.444,-0.510,-0.029,-16.999,-31.355,79.210
-0.464,-0.498,-0.036,-16.067,-25.885,75.109
-0.483,-0.489,-0.041,-15.934,-24.259,70.269
-0.499,-0.484,-0.046,-16.298,-23.856,65.153
-0.513,-0.483,-0.049,-16.925,-23.862,60.428
-0.526,-0.486,-0.050,-17.389,-23.860,56.342
-0.537,-0.489,-0.050,-17.575,-23.389,52.964
-0.549,-0.493,-0.050,-17.384,-22.414,50.345
-0.560,-0.495,-0.051,-16.884,-21.004,48.189
-0.572,-0.494,-0.051,-16.185,-19.365,46.274
-0.585,-0.492,-0.053,-15.462,-17.705,44.480
-0.597,-0.488,-0.055,-14.894,-16.128,42.762
-0.609,-0.483,-0.058,-14.498,-14.714,41.099
-0.621,-0.478,-0.060,-14.263,-13.626,39.471
-0.632,-0.473,-0.061,-14.211,-12.768,37.876
-0.642,-0.469,-0.062,-14.252,-12.081,36.365
-0.651,-0.466,-0.063,-14.348,-11.591,34.914
-0.660,-0.463,-0.063,-14.478,-11.233,33.474
-0.669,-0.461,-0.063,-14.621,-11.001,32.042
-0.677,-0.459,-0.063,-14.747,-10.908,30.626
-0.684,-0.458,-0.063,-14.829,-10.873,29.221
-0.692,-0.457,-0.063,-14.717,-10.844,27.899
-0.699,-0.457,-0.064,-14.397,-10.825,26.673
-0.706,-0.457,-0.064,-13.901,-10.692,25.574
-0.712,-0.457,-0.065,-13.258,-10.414,24.587
-0.719,-0.456,-0.067,-12.455,-10.019,23.701
-0.725,-0.454,-0.068,-11.604,-9.577,22.864
-0.731,-0.450,-0.070,-10.786,-9.190,22.002
-0.738,-0.447,-0.072,-10.163,-8.899,20.988
-0.744,-0.443,-0.073,-9.854,-8.672,19.846
-0.750,-0.439,-0.075,-9.732,-8.439,18.619
-0.755,-0.437,-0.076,-9.714,-8.153,17.351
-0.760,-0.436,-0.078,-9.710,-7.797,16.140
-0.765,-0.435,-0.079,-9.634,-7.349,15.033
-0.770,-0.435,-0.079,-9.450,-6.886,14.032
-0.775,-0.435,-0.079,-9.124,-6.443,13.161
-0.780,-0.436,-0.079,-8.718,-6.061,12.397
-0.785,-0.436,-0.078,-8.267,-5.788,11.692
-0.790,-0.435,-0.078,-7.827,-5.610,11.021
-0.795,-0.435,-0.078,-7.452,-5.545,10.366
-0.800,-0.434,-0.078,-7.129,-5.573,9.735
-0.805,-0.433,-0.077,-6.866,-5.692,9.143
-0.810,-0.433,-0.077,-6.674,-5.867,8.592
-0.814,-0.432,-0.076,-6.518,-6.088,8.066
-0.819,-0.431,-0.076,-6.394,-6.392,7.552
-0.824,-0.430,-0.074,-6.289,-6.763,7.036
-0.828,-0.429,-0.072,-6.156,-7.191,6.526
-0.832,-0.429,-0.069,-5.947,-7.653,6.021
-0.835,-0.429,-0.065,-5.616,-8.090,5.527
-0.839,-0.429,-0.059,-5.046,-8.447,5.019
-0.843,-0.428,-0.052,-4.267,-8.676,4.498
-0.846,-0.428,-0.045,-3.251,-8.625,3.955
-0.849,-0.427,-0.037,-2.030,-8.215,3.384
-0.852,-0.426,-0.031,-0.475,-7.259,2.806
-0.853,-0.425,-0.026,1.366,-5.692,2.251
-0.855,-0.424,-0.021,3.499,-3.384,1.684
-0.857,-0.423,-0.017,5.856,-0.684,1.096
-0.859,-0.421,-0.013,8.414,2.307,0.463
-0.861,-0.419,-0.009,10.953,5.448,-0.241
-0.863,-0.417,-0.005,13.387,8.627,-1.039
-0.865,-0.415,0.000,15.629,11.832,-1.942
-0.866,-0.413,0.006,17.642,15.014,-2.974
-0.868,-0.411,0.011,19.401,18.254,-4.215

0.308,-0.928,-0.687,12.908,1.008,1.225
0.317,-0.930,-0.690,6.150,-15.813,6.515
0.325,-0.932,-0.693,-0.491,-31.758,11.660
0.330,-0.933,-0.695,-6.649,-46.622,16.690
0.333,-0.936,-0.696,-12.109,-60.524,21.558
0.333,-0.937,-0.696,-16.623,-73.348,26.292
0.331,-0.939,-0.695,-19.696,-85.144,30.956
0.328,-0.942,-0.694,-21.832,-95.768,35.692
0.324,-0.945,-0.693,-23.276,-105.289,40.742
0.319,-0.947,-0.690,-24.125,-114.256,46.004
0.313,-0.947,-0.688,-24.264,-122.872,51.660
0.306,-0.946,-0.683,-23.377,-131.550,57.742
0.297,-0.943,-0.674,-21.469,-140.299,64.244
0.283,-0.938,-0.660,-18.699,-148.254,70.930
0.268,-0.934,-0.646,-15.687,-154.820,77.601
0.252,-0.930,-0.631,-12.658,-159.950,83.940
0.236,-0.927,-0.615,-9.662,-163.593,89.754
0.219,-0.923,-0.600,-6.600,-164.663,95.182
0.200,-0.918,-0.585,-3.332,-165.746,100.184
0.180,-0.912,-0.571,-0.014,-165.937,104.819
0.159,-0.905,-0.557,3.231,-165.545,109.418
0.137,-0.895,-0.543,6.219,-165.020,113.799
0.113,-0.883,-0.528,8.535,-164.580,117.735
0.089,-0.872,-0.514,9.855,-164.328,121.335
0.065,-0.859,-0.499,10.205,-164.389,124.497
0.041,-0.845,-0.485,9.712,-164.708,127.015
0.018,-0.829,-0.472,7.802,-165.237,128.735
-0.005,-0.812,-0.461,4.399,-166.016,129.618
-0.028,-0.793,-0.450,-0.738,-167.378,129.590
-0.051,-0.774,-0.440,-7.597,-169.104,128.032
-0.077,-0.753,-0.429,-16.686,-171.356,126.669
-0.103,-0.733,-0.415,-27.288,-174.836,124.988
-0.131,-0.713,-0.399,-38.523,-179.226,123.125
-0.156,-0.697,-0.379,-49.734,-184.401,121.070
-0.184,-0.680,-0.356,-61.022,-189.732,119.051
-0.210,-0.663,-0.326,-71.149,-195.521,117.069
-0.236,-0.646,-0.291,-79.693,-201.461,115.103
-0.262,-0.625,-0.250,-85.748,-207.589,112.661
-0.289,-0.604,-0.199,-90.024,-213.605,109.644
-0.312,-0.584,-0.142,-93.567,-217.234,105.356
-0.327,-0.566,-0.090,-95.979,-216.691,99.585
-0.333,-0.552,-0.047,-95.587,-213.138,93.130
-0.332,-0.543,-0.017,-93.760,-202.970,87.789
-0.329,-0.540,-0.000,-88.457,-179.477,83.677
-0.331,-0.539,0.013,-78.182,-143.541,79.886
-0.339,-0.539,0.020,-62.191,-101.804,75.908
-0.349,-0.537,0.020,-45.206,-61.750,72.103
-0.364,-0.532,0.013,-31.191,-31.576,68.760
-0.384,-0.526,0.003,-21.911,-12.602,65.745
-0.407,-0.523,-0.007,-18.137,-3.865,62.460
-0.431,-0.520,-0.018,-17.126,-1.875,58.789
-0.454,-0.520,-0.027,-17.476,-3.316,54.857
-0.473,-0.521,-0.035,-19.022,-5.140,50.992
-0.489,-0.524,-0.041,-21.812,-7.374,47.362
-0.503,-0.527,-0.045,-24.786,-9.234,44.247
-0.515,-0.532,-0.046,-27.123,-10.649,41.896
-0.527,-0.537,-0.047,-28.436,-11.331,41.067
-0.538,-0.540,-0.046,-28.335,-11.002,40.147
-0.551,-0.540,-0.042,-27.371,-9.743,39.529
-0.563,-0.537,-0.038,-25.519,-7.327,39.044
-0.575,-0.530,-0.032,-23.143,-4.378,38.512
-0.587,-0.520,-0.026,-20.797,-1.072,37.810
-0.598,-0.510,-0.020,-18.805,2.363,36.913
-0.608,-0.500,-0.015,-17.248,5.578,35.846
-0.617,-0.494,-0.013,-16.020,8.230,34.647
-0.625,-0.490,-0.013,-15.003,10.048,33.413
-0.633,-0.489,-0.015,-14.053,11.069,32.286
-0.640,-0.489,-0.019,-13.138,11.233,31.290
-0.647,-0.490,-0.023,-12.254,11.024,30.409
-0.654,-0.491,-0.028,-11.412,10.574,29.660
-0.661,-0.491,-0.032,-10.634,9.905,28.962
-0.668,-0.489,-0.035,-10.078,9.012,28.255
-0.676,-0.486,-0.039,-9.788,7.880,27.489
-0.684,-0.483,-0.042,-9.720,6.640,26.651
-0.692,-0.479,-0.044,-9.846,5.309,25.710
-0.700,-0.476,-0.046,-10.083,3.960,24.663
-0.707,-0.473,-0.048,-10.380,2.743,23.562
-0.714,-0.472,-0.048,-10.677,1.737,22.424
-0.719,-0.471,-0.048,-10.901,1.015,21.281
-0.725,-0.472,-0.048,-10.948,0.643,20.187
-0.730,-0.474,-0.047,-10.783,0.693,19.243
-0.735,-0.475,-0.046,-10.390,1.264,18.450
-0.741,-0.477,-0.044,-9.785,2.124,17.793
-0.747,-0.477,-0.043,-9.051,3.154,17.262
-0.754,-0.477,-0.042,-8.305,4.267,16.789
-0.760,-0.476,-0.040,-7.681,5.353,16.337
-0.767,-0.474,-0.039,-7.261,6.332,15.859
-0.773,-0.473,-0.040,-7.031,7.195,15.345
-0.778,-0.471,-0.040,-6.974,7.893,14.806
-0.783,-0.470,-0.042,-7.003,8.381,14.256
-0.789,-0.470,-0.044,-7.065,8.593,13.709
-0.794,-0.470,-0.046,-7.134,8.566,13.188
-0.799,-0.469,-0.048,-7.152,8.291,12.710
-0.804,-0.469,-0.049,-7.108,7.753,12.264
-0.809,-0.469,-0.050,-7.002,6.966,11.829
-0.814,-0.469,-0.049,-6.821,5.942,11.404
-0.819,-0.469,-0.048,-6.541,4.826,10.996
-0.823,-0.468,-0.045,-6.121,3.693,10.577
-0.827,-0.468,-0.043,-5.635,2.624,10.142
-0.830,-0.468,-0.041,-5.069,1.777,9.741
-0.833,-0.468,-0.040,-4.399,1.134,9.391
-0.835,-0.468,-0.038,-3.646,0.672,9.085
-0.838,-0.468,-0.037,-2.804,0.331,8.804
-0.841,-0.468,-0.035,-1.957,0.055,8.547
-0.845,-0.467,-0.032,-1.142,-0.212,8.304
-0.848,-0.466,-0.029,-0.437,-0.482,8.052
-0.851,-0.465,-0.026,0.186,-0.743,7.765
-0.854,-0.464,-0.022,0.788,-0.936,7.448
-0.857,-0.463,-0.018,1.415,-0.996,7.092
-0.860,-0.462,-0.012,2.130,-0.872,6.695
-0.863,-0.461,-0.006,3.039,-0.517,6.262
-0.866,-0.461,0.000,4.190,0.123,5.801
-0.869,-0.460,0.007,5.596,1.206,5.325
-0.872,-0.459,0.014,7.313,2.724,4.860
-0.874,-0.457,0.021,9.390,4.740,4.382
-0.875,-0.456,0.026,12.018,7.272,3.866
-0.877,-0.453,0.032,14.966,10.322,3.322
-0.878,-0.450,0.036,18.119,13.826,2.688
-0.879,-0.446,0.040,21.314,17.671,1.908

0.332,-0.916,-0.682,29.647,29.625,-1.429
0.338,-0.917,-0.691,33.771,37.231,-4.134
0.344,-0.918,-0.697,35.043,41.088,-6.223
0.351,-0.920,-0.701,34.504,41.687,-7.544
0.358,-0.922,-0.705,33.166,40.841,-8.084
0.366,-0.924,-0.710,29.976,39.081,-7.984
0.374,-0.926,-0.718,23.824,36.670,-7.421
0.381,-0.927,-0.728,15.893,33.957,-6.786
0.389,-0.929,-0.739,6.937,30.178,-6.187
0.398,-0.933,-0.752,-2.144,24.747,-5.590
0.407,-0.938,-0.765,-9.863,18.112,-4.864
0.416,-0.945,-0.779,-15.662,10.564,-3.985
0.425,-0.952,-0.791,-19.791,1.975,-2.870
0.433,-0.959,-0.803,-22.669,-7.241,-1.109
0.442,-0.964,-0.814,-24.497,-17.323,1.662
0.450,-0.968,-0.824,-25.886,-28.414,5.138
0.458,-0.971,-0.832,-26.966,-41.278,9.202
0.465,-0.973,-0.838,-27.812,-55.090,13.803
0.472,-0.973,-0.841,-28.463,-69.596,19.112
0.478,-0.969,-0.843,-29.106,-84.215,24.707
0.483,-0.964,-0.845,-29.966,-98.100,30.409
0.486,-0.957,-0.847,-31.359,-110.676,35.829
0.488,-0.951,-0.848,-33.494,-122.021,39.316
0.487,-0.945,-0.849,-36.520,-132.384,43.216
0.485,-0.939,-0.848,-39.743,-141.951,46.438
0.482,-0.935,-0.848,-42.788,-150.655,49.323
0.477,-0.931,-0.845,-45.366,-158.741,52.199
0.470,-0.928,-0.841,-47.274,-166.487,55.242
0.461,-0.925,-0.835,-48.287,-173.987,58.467
0.451,-0.921,-0.828,-48.631,-181.238,61.855
0.437,-0.916,-0.822,-48.442,-187.602,65.391
0.422,-0.909,-0.815,-47.805,-193.120,69.101
0.405,-0.900,-0.807,-46.510,-197.902,72.904
0.386,-0.889,-0.797,-44.884,-201.963,76.608
0.363,-0.877,-0.784,-43.387,-205.321,80.030
0.339,-0.866,-0.770,-42.391,-208.097,82.954
0.314,-0.855,-0.754,-41.900,-210.555,85.091
0.289,-0.844,-0.735,-41.687,-212.803,86.618
0.263,-0.834,-0.714,-41.744,-214.870,87.598
0.237,-0.826,-0.691,-42.057,-216.558,88.175
0.212,-0.819,-0.666,-42.716,-217.633,88.525
0.187,-0.811,-0.642,-43.441,-217.985,88.805
0.162,-0.802,-0.618,-44.055,-217.390,88.978
0.135,-0.792,-0.595,-44.527,-216.102,89.068
0.108,-0.782,-0.575,-44.956,-214.146,89.047
0.081,-0.771,-0.557,-45.412,-211.731,88.893
0.054,-0.758,-0.543,-46.029,-208.963,88.511
0.027,-0.744,-0.528,-46.941,-206.113,87.873
-0.000,-0.728,-0.515,-48.369,-203.267,86.874
-0.025,-0.714,-0.501,-50.283,-200.582,85.675
-0.051,-0.700,-0.484,-52.929,-198.256,84.154
-0.077,-0.687,-0.465,-56.178,-196.244,82.231
-0.103,-0.674,-0.444,-59.628,-194.434,79.758
-0.130,-0.661,-0.423,-62.816,-192.473,76.980
-0.155,-0.650,-0.401,-65.586,-190.122,74.047
-0.180,-0.639,-0.381,-67.510,-187.427,70.954
-0.205,-0.629,-0.360,-68.797,-184.589,67.601
-0.230,-0.619,-0.339,-69.709,-181.750,63.867
-0.253,-0.610,-0.318,-70.475,-178.883,59.785
-0.275,-0.604,-0.298,-70.839,-175.000,55.647
-0.295,-0.601,-0.280,-70.609,-168.534,51.847
-0.316,-0.600,-0.263,-69.760,-161.794,48.568
-0.336,-0.599,-0.248,-67.948,-153.698,46.172
-0.357,-0.598,-0.234,-64.964,-144.414,44.374
-0.377,-0.596,-0.220,-60.961,-133.932,42.948
-0.399,-0.592,-0.207,-56.438,-123.819,41.583
-0.421,-0.587,-0.196,-51.346,-114.794,40.164
-0.442,-0.581,-0.186,-46.030,-107.156,38.886
-0.462,-0.574,-0.177,-40.541,-100.901,37.913
-0.481,-0.571,-0.170,-34.418,-95.207,37.307
-0.500,-0.567,-0.161,-26.709,-90.221,36.941
-0.520,-0.561,-0.153,-19.049,-85.908,36.710
-0.537,-0.555,-0.150,-11.995,-81.799,36.488
-0.552,-0.548,-0.149,-5.883,-78.045,36.073
-0.567,-0.541,-0.150,-0.768,-74.777,35.357
-0.580,-0.534,-0.151,3.317,-72.102,34.349
-0.592,-0.527,-0.151,6.466,-69.873,33.199
-0.603,-0.518,-0.150,8.673,-67.932,31.863
-0.613,-0.511,-0.148,10.379,-66.053,30.479
-0.623,-0.504,-0.143,11.913,-64.164,29.159
-0.632,-0.499,-0.137,13.494,-62.135,27.927
-0.640,-0.494,-0.130,15.401,-59.838,26.779
-0.647,-0.491,-0.124,17.465,-56.961,25.688
-0.651,-0.490,-0.120,19.885,-52.876,24.727
-0.655,-0.489,-0.117,22.560,-47.960,23.877
-0.660,-0.489,-0.114,25.267,-42.447,23.127
-0.664,-0.489,-0.113,28.142,-36.735,22.383
-0.669,-0.488,-0.113,30.713,-31.148,21.693
-0.673,-0.488,-0.113,32.794,-26.170,21.109
-0.679,-0.487,-0.113,34.392,-22.172,20.596
-0.686,-0.485,-0.112,35.401,-19.392,20.098
-0.691,-0.485,-0.110,36.129,-17.508,19.553
-0.697,-0.484,-0.107,36.613,-16.264,18.995
-0.702,-0.483,-0.103,36.837,-15.333,18.425
-0.706,-0.483,-0.099,36.964,-14.351,17.893
-0.710,-0.484,-0.094,37.091,-13.107,17.408
-0.713,-0.484,-0.091,37.333,-11.436,16.940
-0.716,-0.484,-0.088,37.618,-9.248,16.431
-0.719,-0.483,-0.087,37.862,-6.377,15.852
-0.724,-0.481,-0.087,37.917,-3.209,15.090
-0.729,-0.480,-0.088,37.674,-0.008,14.213
-0.734,-0.480,-0.088,37.237,2.925,13.264
-0.740,-0.481,-0.088,36.618,5.584,12.303
-0.746,-0.484,-0.089,35.921,7.916,11.492
-0.752,-0.488,-0.089,35.244,9.882,10.837
-0.758,-0.492,-0.088,34.639,11.634,10.362
-0.763,-0.496,-0.088,34.125,13.297,10.114
-0.767,-0.500,-0.088,33.749,14.893,10.006
-0.772,-0.503,-0.088,33.443,16.441,9.983
-0.775,-0.504,-0.089,33.178,17.817,10.021
-0.779,-0.505,-0.090,32.867,18.844,10.067
-0.783,-0.504,-0.090,32.317,19.469,10.070
-0.787,-0.502,-0.090,31.598,19.653,10.022
-0.790,-0.500,-0.091,30.709,19.374,9.883
-0.794,-0.499,-0.091,29.723,18.624,9.715
-0.797,-0.499,-0.092,28.701,17.571,9.538
-0.801,-0.499,-0.091,27.676,16.317,9.401
-0.805,-0.500,-0.091,26.690,14.942,9.337
-0.808,-0.501,-0.090,25.766,13.520,9.355

0.331,-1.036,-0.554,30.366,16.433,8.360
0.341,-1.042,-0.553,32.917,17.928,8.431
0.349,-1.045,-0.557,33.443,18.359,9.068
0.356,-1.044,-0.564,32.514,17.594,10.114
0.361,-1.041,-0.574,29.092,15.804,11.255
0.366,-1.033,-0.586,22.149,13.627,12.096
0.372,-1.027,-0.597,11.676,9.452,12.595
0.378,-1.025,-0.607,-0.768,2.483,12.847
0.386,-1.027,-0.614,-13.023,-5.502,13.051
0.394,-1.034,-0.620,-22.642,-13.567,13.531
0.402,-1.044,-0.626,-29.171,-21.318,14.546
0.412,-1.055,-0.633,-33.005,-29.014,16.588
0.422,-1.065,-0.638,-35.029,-37.090,19.981
0.433,-1.071,-0.644,-35.794,-45.959,25.367
0.444,-1.074,-0.650,-36.108,-56.472,31.931
0.454,-1.073,-0.653,-36.240,-67.933,39.206
0.461,-1.066,-0.655,-36.414,-80.054,46.629
0.466,-1.057,-0.655,-37.115,-92.063,53.474
0.470,-1.049,-0.656,-38.651,-103.134,59.467
0.471,-1.041,-0.658,-41.312,-112.932,64.404
0.469,-1.036,-0.659,-45.171,-121.770,67.974
0.465,-1.031,-0.660,-49.980,-129.902,70.706
0.460,-1.027,-0.660,-54.613,-137.640,72.984
0.451,-1.023,-0.659,-58.755,-144.952,75.105
0.439,-1.019,-0.658,-62.177,-151.654,77.338
0.426,-1.015,-0.657,-64.059,-157.978,79.618
0.410,-1.012,-0.655,-64.960,-163.910,81.998
0.392,-1.008,-0.652,-65.084,-169.571,84.596
0.372,-1.003,-0.646,-64.481,-175.274,87.172
0.350,-0.996,-0.639,-63.592,-180.869,89.555
0.327,-0.988,-0.629,-62.589,-186.062,91.707
0.305,-0.981,-0.617,-61.515,-190.686,93.517
0.282,-0.974,-0.603,-60.166,-194.665,94.975
0.258,-0.968,-0.586,-58.695,-197.508,96.224
0.235,-0.961,-0.567,-57.199,-199.160,97.445
0.211,-0.953,-0.548,-55.862,-199.738,98.693
0.186,-0.941,-0.529,-54.784,-199.434,99.821
0.160,-0.928,-0.516,-53.898,-198.250,100.726
0.134,-0.914,-0.502,-53.170,-196.701,101.357
0.107,-0.898,-0.488,-52.792,-194.987,101.560
0.081,-0.881,-0.477,-52.868,-193.220,101.363
0.055,-0.863,-0.469,-53.463,-191.533,100.822
0.029,-0.845,-0.460,-54.763,-190.243,99.910
0.001,-0.825,-0.449,-57.236,-189.583,98.661
-0.027,-0.807,-0.438,-60.706,-189.598,97.247
-0.050,-0.791,-0.426,-64.768,-190.212,95.783
-0.075,-0.777,-0.411,-69.221,-191.153,94.085
-0.100,-0.765,-0.393,-73.833,-191.985,92.282
-0.124,-0.754,-0.371,-78.124,-192.367,90.360
-0.148,-0.743,-0.348,-81.966,-192.161,88.251
-0.171,-0.734,-0.322,-85.064,-191.522,85.841
-0.194,-0.727,-0.292,-87.621,-190.396,83.272
-0.216,-0.722,-0.259,-89.489,-188.785,80.736
-0.237,-0.720,-0.227,-89.889,-186.707,78.412
-0.257,-0.720,-0.196,-89.082,-184.158,76.515
-0.276,-0.719,-0.165,-87.483,-181.352,75.183
-0.295,-0.717,-0.135,-84.852,-178.551,74.166
-0.313,-0.711,-0.106,-78.996,-174.479,73.244
-0.329,-0.698,-0.081,-70.280,-168.655,72.463
-0.345,-0.684,-0.056,-60.227,-159.435,71.756
-0.362,-0.667,-0.032,-51.314,-147.385,71.009
-0.381,-0.650,-0.015,-44.909,-132.896,70.084
-0.396,-0.635,-0.013,-40.634,-116.492,68.588
-0.411,-0.623,-0.017,-37.982,-102.026,65.062
-0.425,-0.619,-0.027,-36.646,-91.112,60.947
-0.439,-0.619,-0.041,-35.543,-83.684,56.137
-0.454,-0.622,-0.053,-34.433,-79.545,51.590
-0.470,-0.625,-0.063,-33.136,-76.688,48.214
-0.485,-0.628,-0.070,-31.450,-74.393,45.794
-0.500,-0.628,-0.073,-29.146,-72.283,44.147
-0.515,-0.626,-0.072,-26.241,-70.114,43.052
-0.530,-0.616,-0.063,-23.317,-67.616,42.079
-0.544,-0.604,-0.051,-21.164,-64.311,41.039
-0.555,-0.594,-0.040,-19.747,-58.921,39.756
-0.565,-0.586,-0.033,-18.699,-51.724,38.173
-0.573,-0.581,-0.031,-17.541,-43.244,36.559
-0.580,-0.578,-0.033,-16.169,-34.060,34.993
-0.588,-0.576,-0.039,-14.514,-25.679,33.704
-0.596,-0.575,-0.046,-12.538,-18.946,32.687
-0.605,-0.574,-0.053,-10.447,-14.905,31.884
-0.615,-0.573,-0.060,-8.394,-12.828,31.250
-0.626,-0.568,-0.066,-6.606,-12.307,30.704
-0.637,-0.563,-0.069,-5.184,-12.806,30.228
-0.648,-0.556,-0.069,-4.169,-13.994,29.775
-0.658,-0.548,-0.068,-3.679,-15.320,29.251
-0.666,-0.541,-0.066,-3.455,-16.607,28.620
-0.674,-0.534,-0.064,-3.411,-17.584,27.848
-0.679,-0.528,-0.061,-3.462,-18.082,26.912
-0.684,-0.522,-0.061,-3.548,-17.888,25.764
-0.688,-0.519,-0.061,-3.568,-16.939,24.570
-0.692,-0.516,-0.062,-3.507,-15.229,23.318
-0.698,-0.514,-0.064,-3.322,-13.301,22.058
-0.705,-0.513,-0.066,-3.001,-11.465,20.868
-0.711,-0.511,-0.067,-2.637,-10.908,19.779
-0.718,-0.509,-0.069,-2.241,-9.760,18.819
-0.726,-0.507,-0.069,-1.864,-9.011,17.962
-0.733,-0.505,-0.068,-1.569,-8.460,17.176
-0.739,-0.503,-0.067,-1.332,-7.886,16.448
-0.744,-0.501,-0.066,-1.124,-7.226,15.750
-0.749,-0.499,-0.064,-0.922,-6.452,15.039
-0.754,-0.498,-0.062,-0.738,-5.511,14.340
-0.758,-0.496,-0.061,-0.593,-4.535,13.704
-0.762,-0.495,-0.060,-0.479,-3.611,13.104
-0.767,-0.493,-0.060,-0.415,-2.804,12.513
-0.771,-0.492,-0.062,-0.430,-2.174,11.961
-0.776,-0.490,-0.064,-0.507,-1.767,11.459
-0.781,-0.489,-0.066,-0.628,-1.647,10.965
-0.785,-0.487,-0.069,-0.800,-1.849,10.466
-0.790,-0.485,-0.071,-1.016,-2.246,9.960
-0.794,-0.483,-0.072,-1.293,-2.796,9.414
-0.798,-0.481,-0.072,-1.609,-3.476,8.802
-0.802,-0.480,-0.070,-1.947,-4.241,8.141
-0.805,-0.480,-0.067,-2.260,-4.986,7.468
-0.808,-0.480,-0.063,-2.480,-5.667,6.828
-0.810,-0.481,-0.058,-2.577,-6.198,6.217
-0.813,-0.483,-0.051,-2.525,-6.565,5.669
-0.815,-0.484,-0.044,-2.296,-6.735,5.215
-0.818,-0.484,-0.036,-1.825,-6.683,4.791
-0.821,-0.484,-0.027,-1.188,-6.334,4.356

0.270,-0.911,-0.745,-5.961,-8.802,4.778
0.280,-0.917,-0.757,-11.178,-12.424,5.309
0.289,-0.925,-0.769,-16.421,-17.024,6.023
0.299,-0.933,-0.781,-21.304,-22.669,7.088
0.310,-0.940,-0.791,-25.655,-28.678,8.651
