aX,aY,aZ,gX,gY,gZ
0.864,-1.259,0.091,-39.659,-22.742,-102.695
0.891,-1.340,0.113,-63.053,-46.341,-156.597
0.936,-1.482,0.160,-75.885,-54.010,-166.151
0.952,-1.627,0.160,-76.594,-43.323,-155.590
0.903,-1.711,0.154,-71.655,-30.620,-105.277
0.851,-1.736,0.167,-60.991,-24.612,-66.711
0.800,-1.726,0.204,-54.048,-22.377,-47.107
0.756,-1.694,0.224,-51.118,-20.828,-38.357
0.718,-1.657,0.250,-50.551,-19.931,-32.709
0.685,-1.632,0.269,-48.981,-20.095,-25.823
0.658,-1.607,0.287,-46.048,-19.879,-19.687
0.638,-1.567,0.304,-44.290,-16.930,-15.780
0.620,-1.526,0.311,-42.905,-14.583,-13.158
0.600,-1.490,0.317,-41.795,-12.362,-11.487
0.586,-1.457,0.319,-40.680,-10.882,-9.483
0.572,-1.429,0.318,-39.332,-10.053,-7.433
0.561,-1.405,0.316,-37.454,-9.454,-5.981
0.554,-1.382,0.311,-35.506,-8.922,-4.957
0.548,-1.363,0.305,-33.258,-8.460,-4.497
0.543,-1.346,0.297,-30.756,-8.243,-4.377
0.538,-1.330,0.290,-28.416,-8.286,-4.354
0.532,-1.315,0.284,-26.378,-8.683,-4.414
0.526,-1.301,0.279,-24.592,-9.330,-4.569
0.520,-1.289,0.274,-23.007,-10.035,-4.792
0.514,-1.275,0.269,-21.539,-10.648,-5.104
0.508,-1.262,0.265,-20.278,-11.084,-5.320
0.500,-1.250,0.260,-19.128,-11.360,-5.637
0.493,-1.238,0.256,-18.100,-11.339,-6.225
0.486,-1.226,0.252,-17.412,-11.000,-6.427
0.479,-1.217,0.250,-16.965,-10.661,-6.122
0.469,-1.208,0.245,-16.419,-10.713,-5.995
0.458,-1.198,0.242,-16.120,-10.646,-6.119
0.451,-1.188,0.239,-16.074,-10.235,-6.324
0.444,-1.185,0.237,-15.971,-9.582,-6.498
0.437,-1.182,0.235,-15.644,-8.855,-6.533
0.429,-1.179,0.233,-15.023,-8.269,-6.383
0.421,-1.175,0.232,-14.179,-7.863,-6.085
0.412,-1.171,0.231,-13.256,-7.575,-5.789
0.404,-1.166,0.230,-12.417,-7.377,-5.611
0.395,-1.160,0.231,-11.756,-7.257,-5.554
0.386,-1.153,0.232,-11.323,-7.193,-5.744
0.376,-1.146,0.233,-11.147,-7.083,-5.924
0.367,-1.140,0.235,-11.046,-7.112,-6.076
0.358,-1.134,0.237,-10.924,-7.241,-6.260
0.349,-1.129,0.240,-10.799,-7.405,-6.429
0.341,-1.124,0.243,-10.706,-7.440,-6.600
0.333,-1.119,0.245,-10.571,-7.370,-6.784
0.326,-1.115,0.248,-10.310,-7.274,-6.951
0.320,-1.111,0.250,-9.993,-7.179,-7.064
0.313,-1.108,0.252,-9.657,-7.082,-7.112
0.308,-1.104,0.254,-9.355,-6.973,-7.042
0.302,-1.101,0.255,-9.096,-6.866,-6.906
0.297,-1.098,0.258,-8.898,-6.751,-6.754
0.293,-1.095,0.260,-8.738,-6.616,-6.591
0.288,-1.093,0.262,-8.572,-6.458,-6.420
0.284,-1.091,0.264,-8.408,-6.277,-6.216
0.281,-1.089,0.267,-8.230,-6.056,-5.984
0.277,-1.087,0.270,-8.006,-5.818,-5.722
0.274,-1.084,0.273,-7.789,-5.565,-5.412
0.270,-1.081,0.276,-7.624,-5.270,-5.070
0.267,-1.079,0.277,-7.502,-4.939,-4.739
0.265,-1.077,0.278,-7.398,-4.568,-4.421
0.262,-1.074,0.279,-7.342,-4.198,-4.096
0.260,-1.072,0.279,-7.337,-3.845,-3.754
0.257,-1.069,0.280,-7.317,-3.508,-3.401
0.255,-1.067,0.280,-7.260,-3.189,-3.065
0.253,-1.065,0.280,-7.148,-2.871,-2.739
0.251,-1.062,0.281,-6.972,-2.551,-2.414
0.249,-1.059,0.281,-6.713,-2.238,-2.087
0.247,-1.056,0.282,-6.467,-1.950,-1.771
0.245,-1.053,0.282,-6.237,-1.674,-1.478
0.243,-1.050,0.281,-6.046,-1.411,-1.206
0.240,-1.046,0.281,-5.916,-1.159,-0.947
0.238,-1.042,0.281,-5.823,-0.905,-0.724
0.236,-1.039,0.280,-5.728,-0.657,-0.552
0.233,-1.036,0.279,-5.627,-0.405,-0.401
0.231,-1.032,0.278,-5.544,-0.154,-0.262
0.229,-1.028,0.278,-5.503,0.108,-0.141
0.226,-1.025,0.277,-5.488,0.362,-0.042
0.224,-1.022,0.276,-5.473,0.613,0.025
0.222,-1.019,0.276,-5.428,0.838,0.061
0.219,-1.016,0.276,-5.368,1.015,0.067
0.217,-1.014,0.275,-5.315,1.183,0.067
0.215,-1.012,0.275,-5.273,1.327,0.069
0.213,-1.010,0.274,-5.242,1.463,0.088
0.211,-1.007,0.273,-5.244,1.587,0.126
0.209,-1.005,0.272,-5.278,1.699,0.162
0.207,-1.003,0.271,-5.336,1.793,0.181
0.205,-1.002,0.270,-5.422,1.889,0.194
0.203,-1.000,0.269,-5.519,1.987,0.205
0.201,-0.999,0.269,-5.624,2.091,0.220
0.200,-0.998,0.268,-5.736,2.189,0.241
0.198,-0.997,0.268,-5.862,2.279,0.267
0.196,-0.996,0.268,-6.001,2.360,0.293
0.194,-0.996,0.267,-6.134,2.432,0.311
0.192,-0.996,0.267,-6.226,2.482,0.311
0.191,-0.997,0.266,-6.301,2.528,0.318
0.190,-0.997,0.266,-6.357,2.573,0.349
0.188,-0.997,0.265,-6.404,2.614,0.435
0.187,-0.997,0.265,-6.453,2.649,0.572
0.185,-0.998,0.265,-6.501,2.682,0.733
0.184,-0.997,0.265,-6.540,2.692,0.891
0.182,-0.997,0.265,-6.578,2.695,1.039
0.181,-0.997,0.265,-6.604,2.694,1.166
0.179,-0.997,0.265,-6.583,2.674,1.256
0.177,-0.997,0.266,-6.551,2.659,1.350
0.176,-0.996,0.267,-6.528,2.621,1.456
0.174,-0.996,0.267,-6.500,2.573,1.575
0.173,-0.997,0.268,-6.468,2.511,1.708
0.172,-0.997,0.269,-6.415,2.444,1.840
0.171,-0.998,0.269,-6.331,2.356,1.976
0.170,-0.999,0.270,-6.221,2.271,2.139
0.169,-1.000,0.271,-6.097,2.183,2.331
0.169,-1.001,0.271,-5.967,2.082,2.571
0.168,-1.002,0.272,-5.791,1.981,2.849
0.167,-1.003,0.273,-5.574,1.885,3.151
0.166,-1.004,0.274,-5.315,1.798,3.480
0.165,-1.004,0.275,-5.009,1.726,3.817
0.164,-1.005,0.277,-4.664,1.669,4.152

1.087,-1.357,0.445,-133.694,2.985,14.004
0.979,-1.708,0.425,-48.974,-10.666,7.671
0.899,-1.824,0.441,48.398,-20.451,6.044
0.868,-1.778,0.395,171.867,-15.480,10.041
0.860,-1.662,0.286,216.597,9.155,58.185
0.777,-1.504,0.375,209.510,12.733,70.282
0.702,-1.487,0.359,180.936,12.160,60.100
0.672,-1.440,0.367,125.227,8.715,33.177
0.648,-1.412,0.368,55.853,3.458,5.210
0.636,-1.421,0.344,0.957,0.407,-11.901
0.637,-1.478,0.317,-28.135,0.501,-27.245
0.651,-1.511,0.295,-29.713,2.889,-26.094
0.650,-1.555,0.297,-26.806,40.760,-24.548
0.657,-1.557,0.301,-22.376,80.363,-12.112
0.623,-1.537,0.267,-8.490,96.554,-7.124
0.575,-1.502,0.236,5.757,94.045,-5.206
0.523,-1.460,0.219,10.743,87.784,-5.251
0.486,-1.426,0.220,10.237,80.917,-5.342
0.468,-1.401,0.225,7.995,75.867,-4.612
0.456,-1.390,0.229,6.744,72.731,-3.146
0.444,-1.386,0.234,7.176,70.744,-1.857
0.433,-1.380,0.234,9.883,69.205,-0.525
0.418,-1.364,0.231,13.463,67.546,0.726
0.398,-1.341,0.227,15.668,65.756,1.512
0.379,-1.316,0.223,16.458,63.839,1.872
0.361,-1.294,0.221,16.295,61.930,1.827
0.344,-1.275,0.219,15.641,60.103,1.555
0.330,-1.261,0.219,14.557,58.410,1.236
0.317,-1.250,0.217,13.337,56.805,1.004
0.303,-1.241,0.215,12.411,55.263,0.857
0.291,-1.234,0.211,11.762,53.760,0.751
0.278,-1.225,0.207,11.214,52.329,0.636
0.266,-1.217,0.202,10.665,50.924,0.449
0.255,-1.208,0.198,10.068,49.525,0.171
0.244,-1.199,0.193,9.327,48.117,-0.146
0.234,-1.193,0.189,8.478,46.720,-0.451
0.224,-1.188,0.185,7.649,45.339,-0.730
0.215,-1.184,0.181,6.974,43.976,-1.002
0.206,-1.180,0.176,6.448,42.638,-1.261
0.198,-1.177,0.172,5.983,41.324,-1.407
0.189,-1.172,0.168,5.575,40.025,-1.468
0.181,-1.168,0.165,5.189,38.744,-1.504
0.173,-1.164,0.161,4.794,37.495,-1.565
0.166,-1.160,0.159,4.405,36.287,-1.637
0.158,-1.156,0.156,4.025,35.137,-1.694
0.152,-1.153,0.152,3.684,34.043,-1.706
0.145,-1.149,0.148,3.396,33.004,-1.713
0.139,-1.146,0.143,3.216,31.912,-1.624
0.132,-1.143,0.141,2.996,31.000,-1.517
0.127,-1.141,0.138,2.751,30.157,-1.427
0.121,-1.137,0.133,2.578,29.256,-1.443
0.115,-1.133,0.130,2.439,28.363,-1.603
0.109,-1.128,0.128,2.207,27.543,-1.792
0.104,-1.124,0.125,1.919,26.842,-1.948
0.099,-1.121,0.123,1.654,26.153,-2.064
0.094,-1.117,0.120,1.508,25.456,-2.151
0.088,-1.113,0.118,1.403,24.769,-2.203
0.083,-1.109,0.116,1.283,24.086,-2.196
0.078,-1.105,0.114,1.169,23.378,-2.140
0.072,-1.102,0.112,1.078,22.639,-2.045
0.067,-1.099,0.111,1.026,21.888,-1.944
0.062,-1.096,0.109,0.979,21.154,-1.864
0.058,-1.093,0.107,0.917,20.474,-1.805
0.053,-1.090,0.106,0.843,19.829,-1.770
0.049,-1.087,0.105,0.759,19.209,-1.766
0.045,-1.084,0.104,0.678,18.624,-1.799
0.041,-1.082,0.103,0.590,18.066,-1.842
0.037,-1.080,0.101,0.521,17.520,-1.873
0.034,-1.077,0.100,0.483,16.960,-1.891
0.030,-1.075,0.099,0.473,16.391,-1.867
0.027,-1.073,0.097,0.482,15.806,-1.759
0.023,-1.071,0.096,0.518,15.212,-1.599
0.020,-1.069,0.095,0.581,14.610,-1.432
0.017,-1.068,0.094,0.665,14.023,-1.291
0.014,-1.066,0.092,0.732,13.482,-1.213
0.011,-1.064,0.091,0.771,12.990,-1.204
0.009,-1.062,0.090,0.784,12.528,-1.212
0.006,-1.060,0.089,0.783,12.075,-1.225
0.004,-1.058,0.089,0.762,11.618,-1.244
0.001,-1.057,0.088,0.731,11.158,-1.235
-0.001,-1.056,0.087,0.710,10.699,-1.190
-0.003,-1.054,0.087,0.714,10.252,-1.117
-0.005,-1.053,0.086,0.745,9.803,-1.019
-0.007,-1.051,0.086,0.782,9.344,-0.919
-0.010,-1.050,0.086,0.813,8.893,-0.824
-0.012,-1.049,0.085,0.827,8.456,-0.770
-0.014,-1.047,0.085,0.823,8.051,-0.748
-0.016,-1.045,0.085,0.788,7.657,-0.730
-0.018,-1.044,0.084,0.748,7.255,-0.682
-0.019,-1.043,0.084,0.714,6.851,-0.583
-0.021,-1.042,0.084,0.705,6.430,-0.428
-0.024,-1.041,0.084,0.741,5.954,-0.227
-0.026,-1.041,0.084,0.802,5.451,0.010
-0.028,-1.040,0.084,0.858,4.929,0.251
-0.030,-1.039,0.084,0.902,4.398,0.470
-0.032,-1.039,0.084,0.896,3.872,0.649
-0.034,-1.038,0.084,0.833,3.399,0.753
-0.035,-1.038,0.084,0.725,2.984,0.794
-0.037,-1.038,0.084,0.582,2.613,0.801
-0.038,-1.038,0.084,0.374,2.268,0.838
-0.039,-1.039,0.083,0.116,1.937,0.945
-0.040,-1.039,0.083,-0.195,1.615,1.137
-0.041,-1.039,0.082,-0.575,1.292,1.424
-0.043,-1.040,0.080,-1.055,0.954,1.766
-0.044,-1.040,0.079,-1.582,0.582,2.135
-0.046,-1.041,0.078,-2.092,0.181,2.481
-0.047,-1.043,0.078,-2.543,-0.229,2.816
-0.049,-1.044,0.078,-2.921,-0.628,3.157
-0.050,-1.045,0.078,-3.217,-1.022,3.544
-0.052,-1.045,0.078,-3.462,-1.420,3.933
-0.053,-1.046,0.077,-3.674,-1.806,4.316
-0.054,-1.046,0.076,-3.833,-2.200,4.700
-0.056,-1.047,0.076,-3.918,-2.642,5.026
-0.058,-1.048,0.076,-4.026,-3.099,5.380
-0.059,-1.048,0.077,-4.169,-3.536,5.730
-0.060,-1.048,0.078,-4.301,-3.972,6.029
-0.062,-1.048,0.080,-4.382,-4.433,6.303
-0.064,-1.049,0.082,-4.335,-4.965,6.543
-0.066,-1.051,0.085,-4.038,-5.527,6.827

0.595,-1.169,0.648,-40.957,-2.149,11.000
0.491,-1.505,0.635,-23.632,-3.009,11.361
0.475,-1.606,0.654,56.987,-2.386,21.639
0.467,-1.554,0.615,149.761,12.329,29.012
0.449,-1.422,0.593,173.891,32.119,33.632
0.409,-1.286,0.605,168.354,32.695,30.204
0.368,-1.209,0.611,135.814,24.988,10.891
0.332,-1.171,0.616,65.084,8.702,-15.490
0.315,-1.185,0.606,-11.050,-12.560,-29.416
0.325,-1.228,0.590,-56.281,-19.573,-30.070
0.343,-1.291,0.572,-69.142,-17.294,-28.263
0.348,-1.349,0.554,-67.736,-9.504,-26.626
0.345,-1.369,0.530,-48.812,0.626,-25.790
0.337,-1.363,0.507,-26.362,10.927,-25.428
0.319,-1.340,0.483,-11.853,16.358,-25.133
0.293,-1.310,0.460,-6.568,16.344,-25.036
0.264,-1.287,0.440,-6.568,11.929,-25.345
0.239,-1.273,0.426,-7.731,2.523,-25.924
0.228,-1.268,0.420,-9.220,-5.634,-26.165
0.224,-1.268,0.417,-9.633,-8.978,-25.744
0.224,-1.269,0.415,-8.257,-9.158,-25.002
0.220,-1.261,0.414,-5.569,-4.431,-23.859
0.218,-1.257,0.403,-2.332,0.517,-21.839
0.205,-1.249,0.393,1.281,3.269,-20.229
0.189,-1.237,0.383,3.445,3.869,-18.783
0.174,-1.222,0.374,4.218,3.410,-17.106
0.162,-1.210,0.369,4.165,2.258,-15.428
0.153,-1.201,0.364,4.021,1.156,-14.011
0.147,-1.195,0.359,4.090,0.866,-12.914
0.141,-1.191,0.355,4.413,1.235,-11.866
0.135,-1.186,0.350,4.961,2.359,-10.837
0.128,-1.180,0.343,5.492,3.530,-9.847
0.119,-1.173,0.335,5.890,4.085,-8.821
0.109,-1.166,0.329,6.016,4.409,-7.849
0.101,-1.158,0.323,5.848,4.720,-7.076
0.094,-1.151,0.317,5.553,5.011,-6.465
0.088,-1.145,0.313,5.210,5.200,-5.944
0.081,-1.140,0.308,4.954,5.327,-5.461
0.075,-1.136,0.304,4.763,5.432,-5.048
0.068,-1.131,0.300,4.597,5.498,-4.676
0.063,-1.125,0.296,4.455,5.387,-4.187
0.056,-1.121,0.292,4.297,5.195,-3.691
0.050,-1.115,0.287,4.152,4.993,-3.373
0.044,-1.110,0.283,3.977,4.760,-3.007
0.040,-1.105,0.280,3.778,4.482,-2.575
0.035,-1.100,0.277,3.595,4.152,-2.189
0.030,-1.096,0.275,3.447,3.820,-1.937
0.026,-1.092,0.272,3.296,3.534,-1.765
0.023,-1.088,0.270,3.163,3.334,-1.611
0.020,-1.084,0.268,3.063,3.204,-1.474
0.017,-1.081,0.266,2.979,3.082,-1.342
0.013,-1.078,0.264,2.908,2.981,-1.223
0.010,-1.074,0.262,2.851,2.913,-1.062
0.008,-1.071,0.261,2.831,2.879,-0.916
0.005,-1.068,0.259,2.873,2.848,-0.810
0.001,-1.065,0.257,2.935,2.818,-0.766
-0.002,-1.062,0.256,2.969,2.779,-0.746
-0.005,-1.059,0.254,2.949,2.696,-0.714
-0.009,-1.056,0.253,2.893,2.583,-0.677
-0.012,-1.053,0.251,2.817,2.448,-0.690
-0.014,-1.051,0.250,2.729,2.298,-0.716
-0.018,-1.049,0.249,2.624,2.131,-0.733
-0.021,-1.047,0.247,2.529,1.964,-0.738
-0.024,-1.045,0.246,2.432,1.786,-0.743
-0.027,-1.043,0.244,2.324,1.595,-0.776
-0.030,-1.041,0.243,2.194,1.411,-0.813
-0.032,-1.039,0.241,2.051,1.235,-0.857
-0.035,-1.038,0.240,1.912,1.061,-0.917
-0.038,-1.036,0.238,1.796,0.901,-1.013
-0.040,-1.035,0.237,1.722,0.757,-1.117
-0.043,-1.034,0.235,1.673,0.620,-1.222
-0.045,-1.032,0.234,1.633,0.489,-1.332
-0.047,-1.031,0.232,1.589,0.345,-1.444
-0.049,-1.029,0.231,1.531,0.197,-1.531
-0.052,-1.028,0.230,1.455,0.026,-1.587
-0.055,-1.027,0.229,1.382,-0.166,-1.629
-0.057,-1.026,0.228,1.334,-0.356,-1.668
-0.059,-1.025,0.227,1.307,-0.533,-1.703
-0.061,-1.024,0.225,1.280,-0.670,-1.757
-0.063,-1.022,0.225,1.246,-0.764,-1.818
-0.065,-1.021,0.224,1.196,-0.852,-1.886
-0.067,-1.020,0.223,1.133,-0.953,-1.953
-0.069,-1.019,0.222,1.067,-1.059,-1.996
-0.070,-1.019,0.221,1.012,-1.161,-2.011
-0.072,-1.018,0.220,0.960,-1.255,-1.995
-0.073,-1.018,0.219,0.928,-1.322,-1.964
-0.075,-1.018,0.218,0.920,-1.368,-1.910
-0.076,-1.017,0.218,0.930,-1.389,-1.863
-0.077,-1.017,0.217,0.927,-1.379,-1.795
-0.078,-1.016,0.217,0.922,-1.364,-1.710
-0.079,-1.015,0.216,0.920,-1.355,-1.634
-0.080,-1.015,0.215,0.922,-1.349,-1.581
-0.082,-1.014,0.215,0.930,-1.336,-1.539
-0.083,-1.013,0.214,0.933,-1.300,-1.509
-0.083,-1.011,0.214,0.906,-1.243,-1.484
-0.084,-1.010,0.214,0.838,-1.211,-1.415
-0.085,-1.009,0.214,0.732,-1.205,-1.355
-0.086,-1.008,0.214,0.573,-1.222,-1.286
-0.088,-1.006,0.214,0.382,-1.250,-1.218
-0.089,-1.005,0.214,0.167,-1.274,-1.150
-0.090,-1.004,0.214,-0.078,-1.289,-1.096
-0.091,-1.003,0.214,-0.353,-1.304,-1.087
-0.092,-1.001,0.214,-0.689,-1.349,-1.105
-0.093,-1.000,0.214,-1.042,-1.436,-1.149
-0.095,-0.999,0.214,-1.396,-1.529,-1.225
-0.096,-0.999,0.214,-1.726,-1.648,-1.331
-0.097,-0.998,0.214,-2.030,-1.782,-1.469
-0.097,-0.998,0.214,-2.329,-1.916,-1.600
-0.098,-0.998,0.213,-2.649,-2.030,-1.745
-0.098,-0.997,0.213,-3.006,-2.134,-1.881
-0.098,-0.998,0.212,-3.361,-2.276,-2.006
-0.098,-0.998,0.210,-3.684,-2.461,-2.112
-0.098,-0.998,0.209,-3.962,-2.701,-2.205
-0.097,-0.998,0.209,-4.175,-2.955,-2.303
-0.097,-0.998,0.208,-4.345,-3.184,-2.372
-0.096,-0.999,0.208,-4.433,-3.415,-2.407
-0.096,-1.000,0.208,-4.491,-3.666,-2.426
-0.095,-1.001,0.208,-4.562,-3.928,-2.423
-0.094,-1.002,0.208,-4.700,-4.182,-2.421

0.786,-1.366,0.492,-28.583,2.378,-1.714
0.688,-1.669,0.459,6.242,4.397,-0.323
0.656,-1.724,0.470,100.682,5.854,3.989
0.608,-1.678,0.464,173.752,12.808,10.401
0.569,-1.559,0.437,182.431,21.246,19.450
0.546,-1.416,0.474,177.048,20.183,18.925
0.513,-1.354,0.473,137.402,11.812,2.661
0.481,-1.330,0.483,69.773,-3.016,-30.988
0.453,-1.341,0.476,-5.826,-17.020,-59.367
0.448,-1.377,0.463,-62.176,-22.287,-73.506
0.472,-1.406,0.434,-80.854,-19.453,-72.133
0.498,-1.495,0.433,-82.718,-6.246,-66.722
0.504,-1.525,0.408,-66.355,11.782,-59.593
0.489,-1.524,0.380,-35.898,27.148,-54.703
0.466,-1.505,0.355,-11.509,31.395,-50.555
0.435,-1.476,0.334,1.662,30.443,-47.574
0.404,-1.444,0.321,3.601,24.613,-45.776
0.380,-1.420,0.311,3.287,13.750,-44.441
0.364,-1.404,0.311,1.886,4.418,-42.767
0.360,-1.397,0.311,0.587,0.144,-40.505
0.359,-1.395,0.312,0.422,-0.390,-37.771
0.358,-1.394,0.311,2.531,0.644,-35.169
0.352,-1.387,0.307,6.546,2.584,-32.629
0.340,-1.375,0.303,11.161,4.033,-29.974
0.326,-1.358,0.298,15.006,4.732,-27.295
0.311,-1.340,0.293,17.572,4.848,-25.118
0.298,-1.321,0.289,18.565,4.631,-23.285
0.286,-1.304,0.284,18.886,4.302,-21.530
0.274,-1.289,0.279,18.971,4.067,-20.016
0.265,-1.276,0.278,18.883,4.491,-18.675
0.257,-1.264,0.276,18.587,5.277,-17.351
0.246,-1.252,0.271,18.403,5.755,-16.074
0.235,-1.241,0.268,18.214,5.769,-14.838
0.223,-1.231,0.265,17.949,5.431,-13.600
0.212,-1.221,0.262,17.544,5.060,-12.438
0.203,-1.212,0.260,17.041,4.716,-11.423
0.195,-1.204,0.258,16.535,4.423,-10.696
0.187,-1.197,0.255,16.071,4.132,-10.129
0.179,-1.190,0.252,15.646,3.848,-9.687
0.172,-1.184,0.249,15.226,3.581,-9.331
0.165,-1.178,0.246,14.817,3.312,-9.038
0.158,-1.171,0.243,14.427,3.049,-8.813
0.152,-1.166,0.241,14.050,2.824,-8.596
0.146,-1.161,0.238,13.698,2.633,-8.366
0.140,-1.156,0.236,13.380,2.449,-8.058
0.135,-1.152,0.234,13.113,2.294,-7.736
0.130,-1.148,0.231,12.893,2.188,-7.436
0.126,-1.144,0.229,12.707,2.097,-7.166
0.121,-1.141,0.227,12.565,2.006,-6.876
0.117,-1.137,0.225,12.435,1.887,-6.600
0.113,-1.134,0.224,12.330,1.683,-6.364
0.108,-1.130,0.222,12.248,1.438,-6.155
0.104,-1.126,0.221,12.172,1.213,-5.338
0.101,-1.123,0.220,12.115,1.051,-5.176
0.097,-1.119,0.219,12.074,1.000,-5.007
0.095,-1.117,0.219,12.058,1.042,-4.789
0.092,-1.114,0.218,12.105,1.064,-4.564
0.088,-1.111,0.217,12.201,1.070,-4.367
0.085,-1.107,0.217,12.248,1.063,-4.222
0.082,-1.102,0.216,12.228,1.085,-4.137
0.078,-1.098,0.216,12.160,1.108,-4.080
0.075,-1.095,0.216,12.064,1.105,-4.003
0.072,-1.092,0.216,11.980,1.058,-3.836
0.069,-1.089,0.216,11.937,0.997,-3.615
0.066,-1.086,0.215,11.927,0.919,-3.396
0.063,-1.082,0.215,11.917,0.838,-3.196
0.060,-1.078,0.215,11.874,0.761,-3.018
0.057,-1.074,0.216,11.754,0.720,-2.859
0.054,-1.070,0.216,11.572,0.696,-2.712
0.051,-1.067,0.216,11.348,0.670,-2.579
0.048,-1.063,0.216,11.111,0.675,-2.440
0.045,-1.060,0.216,10.876,0.656,-2.312
0.041,-1.057,0.216,10.630,0.632,-2.216
0.038,-1.054,0.217,10.351,0.575,-2.141
0.035,-1.052,0.217,10.042,0.463,-2.102
0.032,-1.049,0.217,9.744,0.304,-2.113
0.029,-1.047,0.217,9.453,0.118,-2.142
0.026,-1.045,0.217,9.171,-0.047,-2.147
0.023,-1.044,0.217,8.919,-0.148,-2.134
0.021,-1.043,0.217,8.687,-0.177,-2.097
0.019,-1.042,0.216,8.470,-0.194,-2.052
0.017,-1.041,0.216,8.260,-0.250,-2.020
0.014,-1.039,0.215,8.040,-0.342,-1.976
0.012,-1.038,0.215,7.824,-0.456,-1.898
0.010,-1.037,0.214,7.640,-0.583,-1.811
0.008,-1.036,0.214,7.489,-0.706,-1.729
0.007,-1.035,0.214,7.357,-0.785,-1.670
0.005,-1.034,0.213,7.234,-0.825,-1.642
0.003,-1.032,0.213,7.116,-0.852,-1.626
0.002,-1.031,0.212,6.989,-0.889,-1.605
-0.000,-1.029,0.213,6.855,-0.920,-1.576
-0.002,-1.028,0.213,6.705,-0.943,-1.517
-0.003,-1.027,0.213,6.564,-0.959,-1.464
-0.005,-1.025,0.213,6.438,-0.972,-1.418
-0.006,-1.024,0.213,6.314,-0.980,-1.368
-0.007,-1.023,0.214,6.194,-0.993,-1.299
-0.008,-1.021,0.214,6.077,-1.012,-1.213
-0.010,-1.020,0.214,5.965,-1.042,-1.119
-0.011,-1.018,0.214,5.851,-1.067,-1.044
-0.012,-1.016,0.215,5.713,-1.069,-1.022
-0.014,-1.014,0.215,5.568,-1.047,-1.027
-0.015,-1.013,0.215,5.414,-1.017,-1.036
-0.016,-1.011,0.215,5.264,-0.993,-1.022
-0.017,-1.010,0.215,5.130,-0.965,-0.993
-0.018,-1.009,0.215,5.019,-0.947,-0.969
-0.019,-1.008,0.215,4.918,-0.929,-0.963
-0.020,-1.007,0.215,4.817,-0.909,-0.979
-0.021,-1.006,0.215,4.711,-0.907,-0.993
-0.021,-1.005,0.215,4.604,-0.943,-1.005
-0.022,-1.004,0.215,4.493,-0.996,-1.029
-0.023,-1.003,0.215,4.371,-1.060,-1.107
-0.024,-1.002,0.215,4.217,-1.120,-1.223
-0.025,-1.000,0.215,4.043,-1.235,-1.324
-0.026,-0.999,0.215,3.865,-1.359,-1.418
-0.026,-0.999,0.215,3.672,-1.497,-1.474
-0.026,-0.999,0.215,3.491,-1.648,-1.516
-0.027,-0.999,0.215,3.323,-1.828,-1.555
-0.026,-0.999,0.215,3.168,-2.005,-1.603
-0.026,-1.000,0.215,3.006,-2.163,-1.647

1.090,-1.322,0.529,-18.981,-11.260,8.878
0.986,-1.547,0.452,-5.620,-11.585,-3.182
0.942,-1.649,0.439,102.732,-7.356,-13.219
0.904,-1.636,0.477,152.871,-1.847,-17.037
0.877,-1.592,0.467,161.616,3.300,-17.086
0.859,-1.552,0.445,157.187,6.910,-16.131
0.835,-1.501,0.443,131.694,6.991,-16.264
0.796,-1.458,0.452,84.284,3.436,-24.955
0.746,-1.440,0.428,40.040,-4.240,-40.592
0.742,-1.454,0.447,-4.024,-4.014,-45.538
0.741,-1.485,0.446,-38.976,1.369,-45.572
0.737,-1.517,0.436,-50.959,28.392,-41.876
0.746,-1.554,0.420,-53.786,42.287,-33.216
0.712,-1.568,0.393,-49.931,43.453,-30.469
0.677,-1.559,0.378,-43.461,42.742,-29.586
0.651,-1.537,0.364,-39.415,40.850,-26.307
0.624,-1.518,0.344,-36.235,36.885,-25.541
0.594,-1.497,0.329,-33.795,31.427,-25.770
0.576,-1.479,0.325,-31.828,30.108,-25.390
0.566,-1.473,0.324,-30.267,30.593,-22.225
0.558,-1.470,0.314,-24.696,31.613,-18.544
0.544,-1.458,0.302,-16.067,31.572,-15.936
0.524,-1.442,0.299,-8.707,31.090,-13.429
0.508,-1.423,0.293,-3.848,29.906,-10.157
0.489,-1.404,0.287,-0.155,26.960,-6.981
0.468,-1.386,0.282,2.594,22.395,-4.395
0.450,-1.369,0.280,4.608,17.745,-2.088
0.434,-1.353,0.279,6.094,14.506,-0.138
0.421,-1.337,0.278,7.343,12.407,1.429
0.408,-1.322,0.277,8.279,11.278,2.636
0.395,-1.307,0.274,8.883,10.755,3.837
0.382,-1.294,0.272,9.251,10.375,4.550
0.368,-1.281,0.273,9.142,10.854,5.266
0.359,-1.268,0.267,8.942,10.926,5.840
0.343,-1.256,0.262,8.693,10.556,6.084
0.327,-1.244,0.256,8.368,9.987,6.191
0.315,-1.234,0.253,7.990,9.541,6.454
0.305,-1.226,0.249,7.646,9.369,6.942
0.297,-1.218,0.246,7.414,9.593,7.563
0.287,-1.210,0.241,7.438,9.745,7.938
0.276,-1.202,0.236,7.570,9.757,8.076
0.265,-1.192,0.232,7.544,9.697,8.154
0.256,-1.183,0.229,7.369,9.645,8.217
0.246,-1.174,0.225,7.134,9.571,8.182
0.237,-1.165,0.222,6.930,9.490,7.996
0.229,-1.158,0.219,6.758,9.419,7.743
0.221,-1.151,0.217,6.594,9.365,7.440
0.213,-1.144,0.214,6.448,9.284,7.173
0.207,-1.138,0.212,6.299,9.289,6.930
0.200,-1.132,0.210,6.204,9.303,6.670
0.194,-1.126,0.207,6.202,9.260,6.387
0.188,-1.121,0.205,6.259,9.138,6.081
0.182,-1.116,0.204,6.279,8.941,5.818
0.176,-1.111,0.202,6.273,8.595,5.543
0.169,-1.106,0.201,6.278,8.153,5.264
0.164,-1.101,0.200,6.222,7.722,4.946
0.159,-1.096,0.200,6.127,7.341,4.576
0.154,-1.092,0.200,5.977,6.992,4.133
0.149,-1.087,0.200,5.804,6.625,3.647
0.143,-1.083,0.200,5.601,6.282,3.141
0.139,-1.079,0.200,5.341,5.982,2.655
0.134,-1.076,0.199,5.067,5.674,2.196
0.130,-1.074,0.198,4.803,5.351,1.741
0.125,-1.071,0.197,4.546,5.037,1.276
0.120,-1.068,0.197,4.267,4.738,0.788
0.116,-1.066,0.196,3.954,4.456,0.291
0.111,-1.063,0.196,3.604,4.205,-0.189
0.107,-1.061,0.195,3.237,3.989,-0.659
0.103,-1.059,0.194,2.878,3.795,-1.113
0.098,-1.058,0.194,2.515,3.624,-1.538
0.094,-1.057,0.193,2.114,3.472,-1.860
0.091,-1.057,0.192,1.715,3.314,-2.106
0.087,-1.056,0.191,1.356,3.145,-2.278
0.083,-1.056,0.189,1.042,2.966,-2.382
0.079,-1.055,0.188,0.775,2.774,-2.427
0.076,-1.055,0.186,0.552,2.577,-2.433
0.072,-1.054,0.185,0.345,2.392,-2.439
0.068,-1.053,0.184,0.140,2.252,-2.457
0.064,-1.052,0.182,-0.045,2.157,-2.478
0.061,-1.052,0.181,-0.192,2.090,-2.500
0.057,-1.051,0.180,-0.285,2.030,-2.502
0.054,-1.051,0.179,-0.338,1.973,-2.493
0.051,-1.050,0.178,-0.364,1.905,-2.471
0.047,-1.049,0.176,-0.359,1.845,-2.441
0.044,-1.048,0.175,-0.337,1.799,-2.402
0.042,-1.046,0.174,-0.298,1.758,-2.365
0.039,-1.044,0.174,-0.240,1.702,-2.328
0.036,-1.042,0.173,-0.185,1.639,-2.304
0.033,-1.040,0.173,-0.140,1.581,-2.301
0.030,-1.038,0.172,-0.114,1.535,-2.335
0.028,-1.036,0.172,-0.095,0.979,-2.400
0.026,-1.034,0.172,-0.069,0.946,-2.496
0.024,-1.032,0.171,-0.031,0.899,-2.613
0.022,-1.031,0.171,0.009,0.825,-2.732
0.020,-1.029,0.171,0.053,0.718,-2.834
0.018,-1.028,0.171,0.091,0.560,-2.921
0.017,-1.026,0.170,0.136,0.375,-3.009
0.016,-1.025,0.170,0.166,0.172,-3.111
0.015,-1.023,0.169,0.150,-0.044,-3.234
0.014,-1.021,0.169,0.105,-0.277,-3.370
0.013,-1.019,0.169,0.016,-0.534,-3.529
0.012,-1.017,0.168,-0.123,-0.804,-3.702
0.012,-1.015,0.168,-0.316,-1.086,-3.878
0.012,-1.014,0.168,-0.552,-1.392,-4.034
0.012,-1.013,0.168,-0.823,-1.744,-4.168
0.012,-1.012,0.168,-1.126,-2.120,-4.293
0.013,-1.011,0.168,-1.481,-2.487,-4.411
0.013,-1.011,0.167,-1.874,-2.869,-4.517
0.013,-1.011,0.167,-2.287,-3.270,-4.614
0.014,-1.011,0.167,-2.719,-3.680,-4.705
0.014,-1.011,0.167,-3.169,-4.115,-4.791
0.014,-1.011,0.167,-3.665,-4.576,-4.869
0.014,-1.011,0.167,-4.205,-5.047,-4.949
0.014,-1.012,0.167,-4.825,-5.528,-5.006
0.014,-1.012,0.168,-5.475,-6.012,-5.029
0.015,-1.013,0.168,-6.145,-6.506,-5.012
0.015,-1.013,0.168,-6.904,-6.946,-4.934
0.016,-1.013,0.167,-7.680,-7.343,-4.755
0.016,-1.013,0.165,-8.376,-7.722,-4.550

0.617,-1.150,0.643,-42.827,-10.266,-10.177
0.562,-1.356,0.583,-41.529,-10.214,-23.749
0.556,-1.462,0.599,4.365,6.885,-23.230
0.543,-1.451,0.582,62.972,11.699,-22.437
0.527,-1.409,0.562,82.940,28.804,-32.560
0.508,-1.322,0.563,77.915,35.084,-49.211
0.477,-1.228,0.567,33.464,35.157,-63.835
0.438,-1.222,0.575,-27.614,20.615,-65.716
0.424,-1.252,0.546,-56.602,-15.234,-65.033
0.418,-1.293,0.539,-68.719,-42.295,-64.207
0.428,-1.330,0.543,-73.178,-44.303,-64.465
0.444,-1.356,0.536,-73.646,-39.992,-63.543
0.459,-1.385,0.513,-71.109,-35.827,-59.629
0.462,-1.419,0.490,-59.244,-33.989,-56.598
0.446,-1.426,0.474,-43.679,-31.594,-55.379
0.428,-1.407,0.454,-34.966,-30.097,-53.812
0.410,-1.389,0.431,-29.650,-29.573,-52.225
0.397,-1.379,0.413,-26.152,-29.094,-51.130
0.389,-1.374,0.398,-23.411,-28.496,-49.778
0.383,-1.372,0.386,-20.511,-28.063,-47.559
0.376,-1.370,0.378,-17.076,-27.980,-44.562
0.368,-1.367,0.372,-13.412,-27.903,-40.179
0.360,-1.358,0.368,-10.056,-27.669,-37.040
0.352,-1.347,0.364,-7.158,-27.387,-33.994
0.343,-1.335,0.361,-4.651,-27.027,-31.123
0.333,-1.323,0.357,-2.565,-26.646,-28.790
0.324,-1.310,0.352,-1.004,-26.179,-26.843
0.315,-1.296,0.347,-0.027,-25.070,-25.137
0.308,-1.283,0.342,0.573,-23.352,-23.499
0.301,-1.271,0.337,0.987,-21.135,-22.033
0.293,-1.259,0.332,1.264,-18.696,-20.861
0.284,-1.246,0.322,1.423,-16.746,-19.773
0.275,-1.235,0.317,1.442,-15.416,-18.685
0.265,-1.224,0.312,1.353,-14.444,-17.560
0.257,-1.214,0.306,1.222,-13.699,-16.460
0.250,-1.205,0.301,1.106,-13.097,-15.430
0.243,-1.196,0.296,1.010,-12.613,-14.472
0.236,-1.187,0.291,0.911,-12.253,-13.551
0.230,-1.178,0.285,0.805,-12.024,-12.663
0.223,-1.171,0.279,0.710,-11.906,-11.821
0.217,-1.164,0.274,0.637,-11.838,-11.024
0.212,-1.158,0.268,0.591,-11.786,-10.263
0.207,-1.152,0.263,0.567,-11.760,-9.538
0.202,-1.147,0.257,0.563,-11.752,-8.863
0.197,-1.141,0.252,0.574,-11.771,-8.239
0.192,-1.136,0.248,0.558,-11.739,-7.665
0.188,-1.130,0.243,0.558,-11.802,-7.171
0.184,-1.125,0.239,0.590,-11.749,-6.707
0.181,-1.121,0.236,0.647,-11.720,-6.280
0.178,-1.117,0.232,0.798,-11.702,-5.934
0.174,-1.113,0.228,1.011,-11.698,-5.656
0.172,-1.108,0.225,1.231,-11.637,-5.426
0.169,-1.104,0.222,1.406,-11.531,-5.233
0.167,-1.100,0.218,1.538,-11.389,-5.080
0.164,-1.096,0.215,1.622,-11.216,-4.980
0.162,-1.092,0.213,1.674,-11.034,-4.911
0.160,-1.088,0.210,1.719,-10.851,-4.867
0.158,-1.084,0.208,1.750,-10.657,-4.849
0.157,-1.080,0.206,1.768,-10.460,-4.863
0.155,-1.076,0.204,1.763,-10.260,-4.921
0.153,-1.072,0.202,1.737,-10.067,-5.004
0.151,-1.068,0.201,1.685,-9.896,-5.070
0.150,-1.065,0.200,1.633,-9.755,-5.131
0.149,-1.063,0.199,1.582,-9.648,-5.195
0.147,-1.060,0.198,1.540,-9.571,-5.270
0.145,-1.058,0.196,1.516,-9.514,-5.355
0.144,-1.056,0.194,1.493,-9.471,-5.428
0.142,-1.054,0.193,1.454,-9.449,-5.477
0.140,-1.052,0.192,1.414,-9.477,-5.499
0.138,-1.050,0.191,1.431,-9.548,-5.489
0.136,-1.049,0.190,1.489,-9.637,-5.482
0.135,-1.048,0.189,1.572,-9.733,-5.469
0.133,-1.046,0.188,1.682,-9.835,-5.450
0.130,-1.045,0.188,1.791,-9.940,-5.428
0.128,-1.044,0.187,1.892,-10.046,-5.397
0.126,-1.043,0.186,1.991,-10.153,-5.351
0.124,-1.042,0.185,2.095,-10.247,-5.307
0.122,-1.041,0.184,2.196,-10.318,-5.270
0.120,-1.040,0.183,2.286,-10.357,-5.249
0.118,-1.039,0.182,2.375,-10.376,-5.245
0.115,-1.038,0.181,2.448,-10.377,-5.245
0.113,-1.037,0.181,2.507,-10.379,-5.245
0.112,-1.037,0.181,2.559,-10.389,-5.243
0.110,-1.036,0.181,2.621,-10.405,-5.240
0.109,-1.036,0.181,2.689,-10.432,-5.235
0.107,-1.035,0.181,2.760,-10.457,-5.233
0.106,-1.033,0.181,2.823,-10.490,-5.235
0.104,-1.032,0.181,2.852,-10.533,-5.232
0.103,-1.031,0.180,2.861,-10.570,-5.225
0.103,-1.030,0.180,2.831,-10.600,-5.218
0.102,-1.029,0.179,2.751,-10.624,-5.208
0.102,-1.028,0.179,2.577,-10.639,-5.198
0.102,-1.027,0.179,2.350,-10.658,-5.184
0.101,-1.027,0.179,2.063,-10.703,-5.169
0.101,-1.027,0.179,1.698,-10.778,-5.149
0.101,-1.027,0.180,1.265,-10.893,-5.116
0.102,-1.028,0.181,0.714,-11.065,-5.076
0.102,-1.029,0.182,0.055,-11.282,-5.018
0.103,-1.030,0.183,-0.708,-11.530,-4.916
0.104,-1.031,0.184,-1.507,-11.800,-4.745
0.104,-1.031,0.186,-2.254,-12.101,-4.535
0.104,-1.032,0.187,-2.929,-12.441,-4.316
0.104,-1.033,0.187,-3.557,-12.781,-4.102
0.104,-1.033,0.188,-4.131,-13.080,-3.851
0.105,-1.033,0.188,-4.684,-13.271,-3.643
0.105,-1.032,0.187,-5.339,-13.231,-3.605
0.105,-1.032,0.185,-6.108,-13.106,-3.710
0.106,-1.032,0.183,-7.050,-12.983,-3.788
0.107,-1.032,0.180,-8.049,-12.956,-3.757
0.107,-1.034,0.177,-8.995,-13.082,-3.572
0.107,-1.035,0.175,-9.781,-13.383,-3.255
0.107,-1.036,0.173,-10.343,-13.781,-2.984
0.107,-1.036,0.172,-10.812,-14.169,-2.851
0.108,-1.036,0.172,-11.174,-14.481,-2.846
0.109,-1.036,0.172,-11.516,-14.724,-2.812
0.108,-1.035,0.172,-11.961,-14.906,-2.692
0.109,-1.036,0.172,-12.442,-14.988,-2.523
0.110,-1.038,0.171,-12.812,-14.986,-2.292
0.111,-1.040,0.171,-13.053,-14.893,-1.917

1.097,-1.278,0.459,-151.823,-25.559,-6.003
1.081,-1.505,0.372,-153.141,-18.660,-16.616
1.010,-1.620,0.353,-128.016,-15.918,-20.492
0.973,-1.644,0.347,-118.251,-7.477,-24.163
0.957,-1.631,0.326,-115.008,-1.674,-32.728
0.948,-1.603,0.276,-112.783,6.315,-42.582
0.936,-1.557,0.257,-113.881,12.946,-49.485
0.906,-1.540,0.256,-127.803,13.348,-54.904
0.897,-1.562,0.231,-143.403,11.706,-54.178
0.879,-1.601,0.208,-144.128,8.671,-49.865
0.855,-1.647,0.188,-140.555,5.998,-44.048
0.834,-1.679,0.169,-134.374,4.643,-39.547
0.824,-1.689,0.153,-122.115,3.832,-37.849
0.818,-1.677,0.146,-105.542,3.685,-36.105
0.801,-1.658,0.140,-89.636,3.800,-33.808
0.779,-1.636,0.134,-77.168,4.511,-30.986
0.756,-1.615,0.127,-68.217,4.831,-27.907
0.727,-1.592,0.119,-61.360,4.889,-25.333
0.702,-1.571,0.114,-55.541,4.659,-22.073
0.681,-1.552,0.109,-49.858,3.208,-17.441
0.658,-1.534,0.106,-44.089,0.260,-12.456
0.630,-1.513,0.104,-38.748,-4.039,-7.755
0.603,-1.490,0.101,-33.700,-11.518,-6.170
0.572,-1.462,0.113,-30.677,-13.834,-2.920
0.556,-1.441,0.119,-29.360,-13.998,4.030
0.540,-1.426,0.123,-27.388,-12.223,13.665
0.520,-1.414,0.122,-23.403,-10.958,19.137
0.507,-1.400,0.122,-18.474,-10.822,23.411
0.496,-1.384,0.122,-13.565,-11.058,26.290
0.481,-1.365,0.125,-10.450,-11.004,28.078
0.463,-1.344,0.126,-8.608,-10.471,28.555
0.446,-1.325,0.126,-7.684,-9.592,28.230
0.429,-1.308,0.127,-7.202,-8.436,27.588
0.413,-1.294,0.123,-6.884,-7.792,26.816
0.398,-1.281,0.119,-6.691,-7.264,26.074
0.385,-1.271,0.118,-6.814,-6.678,25.385
0.372,-1.261,0.114,-6.953,-6.021,24.572
0.359,-1.250,0.111,-7.098,-4.948,23.238
0.347,-1.239,0.108,-7.399,-3.652,21.440
0.336,-1.229,0.104,-8.038,-2.245,19.443
0.327,-1.220,0.100,-8.878,-1.122,17.636
0.318,-1.213,0.095,-9.704,-0.682,16.093
0.309,-1.207,0.090,-10.283,-0.534,14.804
0.302,-1.202,0.086,-10.672,-0.550,13.780
0.294,-1.196,0.081,-10.855,-0.664,12.883
0.288,-1.189,0.076,-10.891,-0.839,12.090
0.282,-1.183,0.072,-10.871,-1.034,11.392
0.276,-1.177,0.068,-10.834,-1.199,10.785
0.271,-1.171,0.064,-10.758,-1.300,10.195
0.267,-1.165,0.061,-10.617,-1.312,9.573
0.262,-1.161,0.057,-10.373,-1.195,8.946
0.257,-1.157,0.053,-10.025,-1.053,8.360
0.252,-1.153,0.050,-9.620,-0.926,7.848
0.247,-1.149,0.048,-9.211,-0.836,7.423
0.241,-1.145,0.045,-8.813,-0.795,7.035
0.236,-1.141,0.043,-8.462,-0.743,6.662
0.230,-1.137,0.041,-8.157,-0.648,6.317
0.225,-1.134,0.040,-7.879,-0.530,5.992
0.220,-1.129,0.039,-7.634,-0.410,5.678
0.215,-1.125,0.038,-7.453,-0.306,5.372
0.209,-1.120,0.037,-7.350,-0.227,5.079
0.204,-1.116,0.036,-7.317,-0.171,4.826
0.199,-1.112,0.036,-7.309,-0.123,4.584
0.194,-1.109,0.035,-7.317,-0.078,4.336
0.189,-1.105,0.034,-7.345,-0.038,4.078
0.184,-1.102,0.032,-7.393,0.016,3.816
0.179,-1.099,0.031,-7.460,0.075,3.552
0.174,-1.097,0.030,-7.556,0.141,3.285
0.170,-1.095,0.028,-7.675,0.219,3.017
0.165,-1.093,0.027,-7.821,0.309,2.731
0.161,-1.092,0.026,-7.998,0.403,2.454
0.157,-1.090,0.025,-8.207,0.499,2.194
0.154,-1.089,0.024,-8.452,0.585,1.957
0.150,-1.087,0.022,-8.724,0.673,1.744
0.146,-1.086,0.020,-9.016,0.761,1.557
0.143,-1.085,0.019,-9.345,0.846,1.392
0.140,-1.084,0.017,-9.696,0.916,1.235
0.137,-1.083,0.015,-10.009,0.963,1.094
0.135,-1.082,0.013,-10.245,0.974,0.971
0.132,-1.081,0.012,-10.398,0.958,0.862
0.129,-1.080,0.011,-10.477,0.913,0.762
0.126,-1.079,0.010,-10.484,0.848,0.660
0.123,-1.078,0.009,-10.407,0.776,0.556
0.120,-1.078,0.008,-10.248,0.696,0.442
0.118,-1.077,0.007,-10.064,0.615,0.331
0.116,-1.077,0.005,-9.860,0.525,0.258
0.114,-1.075,0.004,-9.659,0.397,0.229
0.112,-1.073,0.004,-9.456,0.230,0.186
0.110,-1.072,0.003,-9.187,0.048,0.035
0.110,-1.071,0.002,-8.787,-0.100,-0.061
0.107,-1.069,0.002,-8.412,-0.270,-0.094
0.105,-1.066,0.001,-8.088,-0.461,-0.128
0.103,-1.064,-0.000,-7.771,-0.657,-0.198
0.101,-1.062,-0.001,-7.452,-0.873,-0.220
0.099,-1.060,-0.002,-7.129,-1.104,-0.219
0.097,-1.058,-0.004,-6.767,-1.318,-0.240
0.096,-1.056,-0.005,-6.371,-1.518,-0.249
0.094,-1.053,-0.005,-5.975,-1.720,-0.269
0.093,-1.051,-0.006,-5.575,-1.942,-0.348
0.093,-1.050,-0.006,-5.079,-2.207,-0.642
0.094,-1.048,-0.006,-4.495,-2.424,-0.763
0.091,-1.046,-0.006,-4.067,-2.599,-0.667
0.088,-1.044,-0.006,-3.689,-2.818,-0.660
0.087,-1.042,-0.007,-3.271,-3.078,-0.743
0.085,-1.039,-0.008,-2.973,-3.329,-0.789
0.084,-1.037,-0.008,-2.762,-3.520,-0.844
0.084,-1.036,-0.009,-2.577,-3.676,-0.865
0.082,-1.035,-0.010,-2.430,-3.816,-0.926
0.081,-1.034,-0.011,-2.270,-3.937,-1.027
0.081,-1.032,-0.011,-2.172,-4.051,-1.111
0.080,-1.031,-0.012,-2.130,-4.141,-1.149
0.079,-1.030,-0.012,-2.123,-4.252,-1.158
0.078,-1.030,-0.013,-2.094,-4.404,-1.219
0.078,-1.029,-0.013,-2.004,-4.569,-1.259
0.077,-1.029,-0.012,-1.902,-4.726,-1.290
0.077,-1.029,-0.012,-1.776,-4.878,-1.354
0.076,-1.029,-0.012,-1.619,-5.036,-1.430
0.075,-1.029,-0.012,-1.455,-5.207,-1.547
0.074,-1.029,-0.012,-1.269,-5.432,-1.628

0.895,-1.675,0.048,-1.540,-4.224,-113.029
0.928,-1.799,0.030,0.156,-7.886,-113.310
0.884,-2.016,-0.042,19.044,-4.582,-143.862
0.860,-2.054,0.036,55.088,-7.080,-152.602
0.796,-2.047,0.036,55.482,-6.284,-149.109
0.718,-2.019,0.035,49.598,-8.507,-145.480
0.689,-1.986,0.042,29.497,-9.717,-141.778
0.672,-1.956,0.050,-3.792,-12.517,-138.368
0.657,-1.942,0.056,-28.037,-15.400,-137.849
0.642,-1.934,0.068,-46.958,-18.015,-135.381
0.628,-1.934,0.074,-59.586,-17.575,-131.559
0.618,-1.946,0.085,-68.618,-14.710,-127.754
0.612,-1.960,0.083,-70.010,-9.740,-120.114
0.598,-1.962,0.085,-69.033,-1.879,-116.528
0.578,-1.941,0.083,-67.705,7.896,-114.299
0.547,-1.908,0.081,-66.375,12.656,-106.089
0.516,-1.891,0.071,-64.645,12.808,-100.756
0.488,-1.862,0.053,-59.648,8.487,-98.427
0.466,-1.824,0.046,-53.712,0.327,-96.140
0.453,-1.787,0.046,-47.613,-2.228,-87.770
0.453,-1.766,0.051,-42.211,-2.182,-76.994
0.442,-1.739,0.047,-36.308,-0.651,-67.662
0.421,-1.707,0.044,-30.218,0.426,-61.068
0.402,-1.673,0.041,-24.490,0.962,-56.286
0.389,-1.643,0.043,-20.322,0.980,-50.040
0.385,-1.620,0.041,-15.891,-0.361,-41.416
0.376,-1.600,0.041,-10.210,-3.831,-32.556
0.361,-1.579,0.043,-4.144,-7.881,-25.735
0.344,-1.553,0.048,1.053,-10.707,-20.995
0.328,-1.525,0.053,4.699,-11.270,-17.864
0.316,-1.497,0.059,6.787,-10.909,-16.311
0.307,-1.469,0.064,7.485,-9.201,-15.898
0.300,-1.447,0.069,7.220,-6.919,-15.679
0.292,-1.428,0.068,6.760,-4.977,-15.414
0.282,-1.413,0.068,6.135,-3.535,-15.207
0.272,-1.399,0.068,5.404,-2.400,-15.137
0.265,-1.388,0.069,4.630,-1.829,-15.373
0.259,-1.374,0.068,3.627,-1.187,-15.368
0.252,-1.362,0.066,2.229,-0.681,-15.221
0.246,-1.351,0.064,0.406,-0.047,-14.989
0.240,-1.341,0.061,-1.377,0.556,-14.860
0.234,-1.332,0.057,-2.943,0.921,-14.776
0.228,-1.323,0.054,-4.386,1.072,-14.688
0.223,-1.314,0.051,-5.689,1.202,-14.586
0.218,-1.305,0.048,-6.855,1.397,-14.441
0.213,-1.297,0.045,-7.804,1.582,-14.241
0.208,-1.289,0.042,-8.496,1.715,-14.043
0.203,-1.281,0.040,-8.966,1.803,-13.831
0.198,-1.273,0.037,-9.242,1.868,-13.601
0.193,-1.266,0.035,-9.308,1.933,-13.365
0.188,-1.258,0.033,-9.253,2.018,-13.159
0.183,-1.251,0.031,-9.057,2.135,-13.010
0.177,-1.244,0.030,-8.752,2.269,-12.893
0.171,-1.238,0.028,-8.216,2.425,-12.811
0.166,-1.231,0.027,-7.550,2.637,-12.790
0.160,-1.224,0.026,-6.827,2.863,-12.806
0.154,-1.217,0.026,-6.121,3.071,-12.794
0.148,-1.210,0.026,-5.442,3.261,-12.761
0.143,-1.203,0.026,-4.846,3.470,-12.720
0.137,-1.196,0.025,-4.323,3.659,-12.685
0.130,-1.189,0.025,-3.847,3.793,-12.664
0.124,-1.183,0.025,-3.428,3.907,-12.644
0.119,-1.177,0.025,-3.105,4.017,-12.598
0.113,-1.172,0.026,-2.873,4.129,-12.518
0.108,-1.166,0.027,-2.722,4.249,-12.421
0.103,-1.162,0.028,-2.639,4.365,-12.316
0.098,-1.158,0.029,-2.597,4.475,-12.189
0.093,-1.154,0.030,-2.582,4.572,-12.035
0.089,-1.151,0.031,-2.593,4.663,-11.850
0.085,-1.147,0.032,-2.638,4.752,-11.662
0.081,-1.143,0.033,-2.704,4.844,-11.493
0.077,-1.140,0.033,-2.789,4.942,-11.339
0.073,-1.136,0.033,-2.879,5.033,-11.162
0.070,-1.133,0.033,-2.950,5.124,-10.966
0.067,-1.131,0.033,-2.979,5.205,-10.764
0.064,-1.128,0.033,-2.961,5.264,-10.558
0.061,-1.125,0.033,-2.911,5.297,-10.352
0.058,-1.123,0.033,-2.822,5.304,-10.143
0.055,-1.120,0.033,-2.724,5.260,-9.936
0.053,-1.117,0.033,-2.625,5.162,-9.705
0.050,-1.113,0.033,-2.516,5.026,-9.480
0.048,-1.110,0.034,-2.402,4.873,-9.291
0.046,-1.107,0.034,-2.281,4.722,-9.133
0.045,-1.103,0.034,-2.146,4.565,-9.000
0.043,-1.100,0.034,-1.997,4.380,-8.862
0.042,-1.097,0.034,-1.816,4.167,-8.700
0.041,-1.094,0.034,-1.622,3.944,-8.528
0.039,-1.091,0.033,-1.406,3.723,-8.370
0.038,-1.088,0.033,-1.200,3.493,-8.222
0.037,-1.086,0.033,-1.027,3.227,-8.046
0.036,-1.083,0.032,-0.834,2.897,-7.828
0.035,-1.081,0.032,-0.632,2.571,-7.626
0.035,-1.079,0.033,-0.460,2.254,-7.429
0.034,-1.076,0.032,-0.317,1.941,-7.255
0.033,-1.074,0.032,-0.233,1.652,-7.104
0.032,-1.071,0.032,-0.165,1.388,-6.994
0.032,-1.069,0.032,-0.145,1.150,-6.902
0.031,-1.067,0.032,-0.146,0.926,-6.822
0.031,-1.065,0.032,-0.158,0.698,-6.760
0.031,-1.063,0.032,-0.180,0.478,-6.703
0.031,-1.061,0.032,-0.232,0.255,-6.648
0.030,-1.060,0.031,-0.313,0.028,-6.589
0.030,-1.058,0.031,-0.415,-0.182,-6.538
0.029,-1.056,0.031,-0.552,-0.390,-6.482
0.029,-1.055,0.031,-0.729,-0.564,-6.429
0.029,-1.053,0.031,-0.929,-0.730,-6.358
0.029,-1.051,0.031,-1.144,-0.889,-6.273
0.028,-1.049,0.031,-1.386,-1.026,-6.183
0.028,-1.048,0.031,-1.659,-1.143,-6.101
0.027,-1.046,0.030,-1.947,-1.244,-6.008
0.026,-1.044,0.030,-2.224,-1.330,-5.902
0.026,-1.043,0.029,-2.478,-1.407,-5.784
0.025,-1.042,0.029,-2.697,-1.485,-5.665
0.025,-1.042,0.029,-2.873,-1.579,-5.548
0.024,-1.041,0.029,-3.023,-1.687,-5.416
0.024,-1.041,0.028,-3.157,-1.815,-5.285
0.023,-1.041,0.028,-3.288,-1.964,-5.142
0.023,-1.042,0.028,-3.413,-2.166,-4.986
0.023,-1.042,0.028,-3.557,-2.394,-4.822

0.606,-1.477,0.212,-92.206,12.441,-35.116
0.567,-1.574,0.248,-70.370,19.000,-40.021
0.495,-1.637,0.271,-64.529,18.349,-37.588
0.454,-1.592,0.251,-47.712,21.019,-36.579
0.413,-1.514,0.252,-32.091,33.598,-38.756
0.404,-1.453,0.265,-42.541,33.596,-38.334
0.407,-1.447,0.256,-62.153,30.040,-39.096
0.408,-1.441,0.254,-86.452,27.812,-40.432
0.411,-1.441,0.246,-107.912,27.112,-37.618
0.403,-1.469,0.229,-119.252,26.355,-29.667
0.396,-1.520,0.208,-116.352,25.441,-26.535
0.395,-1.552,0.187,-102.583,25.307,-23.397
0.387,-1.546,0.167,-82.320,27.555,-19.865
0.376,-1.521,0.150,-66.262,30.154,-16.087
0.363,-1.491,0.133,-59.185,31.044,-12.255
0.351,-1.467,0.117,-55.455,30.192,-8.902
0.338,-1.450,0.109,-52.668,26.992,-6.502
0.326,-1.439,0.108,-49.992,24.364,-4.807
0.317,-1.430,0.110,-45.622,23.052,-3.570
0.310,-1.421,0.112,-40.668,22.452,-2.637
0.302,-1.409,0.113,-34.225,22.145,-2.267
0.293,-1.393,0.113,-27.304,21.610,-2.261
0.282,-1.374,0.110,-20.894,20.474,-2.298
0.271,-1.355,0.108,-16.433,19.061,-1.991
0.259,-1.334,0.108,-13.685,17.866,-1.453
0.247,-1.313,0.108,-12.142,17.165,-0.898
0.237,-1.294,0.108,-11.310,16.509,-0.356
0.227,-1.276,0.107,-10.675,15.848,0.100
0.216,-1.262,0.107,-10.400,15.162,0.442
0.205,-1.248,0.107,-10.382,14.637,0.791
0.194,-1.235,0.106,-10.577,14.203,1.016
0.184,-1.223,0.105,-10.939,13.823,0.987
0.174,-1.212,0.103,-11.477,13.385,0.737
0.165,-1.201,0.101,-12.272,12.913,0.474
0.157,-1.192,0.100,-13.310,12.482,0.279
0.149,-1.184,0.097,-14.384,12.054,0.118
0.142,-1.177,0.094,-15.314,11.637,-0.088
0.134,-1.171,0.091,-16.071,11.288,-0.426
0.127,-1.165,0.088,-16.782,11.064,-1.003
0.121,-1.160,0.086,-17.516,10.976,-1.688
0.115,-1.155,0.084,-18.222,11.007,-2.191
0.107,-1.151,0.077,-18.665,10.769,-2.547
0.102,-1.149,0.075,-19.046,10.542,-2.754
0.095,-1.147,0.072,-19.527,10.388,-2.969
0.088,-1.145,0.068,-19.857,10.117,-2.982
0.084,-1.145,0.064,-19.950,9.661,-2.852
0.078,-1.145,0.060,-19.835,9.077,-2.790
0.073,-1.142,0.056,-19.607,8.451,-2.771
0.068,-1.139,0.052,-19.385,7.847,-2.772
0.064,-1.137,0.049,-19.181,7.364,-2.819
0.060,-1.135,0.046,-18.933,7.028,-2.946
0.056,-1.133,0.043,-18.640,6.791,-3.200
0.053,-1.130,0.041,-18.261,6.613,-3.541
0.049,-1.128,0.038,-17.769,6.437,-3.854
0.045,-1.125,0.036,-17.201,6.274,-4.151
0.042,-1.123,0.033,-16.592,6.112,-4.395
0.039,-1.120,0.031,-15.914,5.961,-4.572
0.035,-1.117,0.030,-15.151,5.847,-4.727
0.032,-1.114,0.028,-14.280,5.779,-4.841
0.029,-1.110,0.027,-13.375,5.750,-4.902
0.025,-1.107,0.026,-12.447,5.752,-4.913
0.023,-1.104,0.026,-11.544,5.778,-4.886
0.020,-1.101,0.025,-10.679,5.824,-4.838
0.017,-1.098,0.024,-9.890,5.865,-4.761
0.014,-1.095,0.024,-9.164,5.890,-4.649
0.011,-1.092,0.023,-8.499,5.874,-4.485
0.008,-1.089,0.023,-7.918,5.820,-4.280
0.005,-1.086,0.023,-7.447,5.737,-4.086
0.002,-1.082,0.023,-7.119,5.651,-3.945
-0.000,-1.080,0.022,-6.871,5.579,-3.846
-0.003,-1.077,0.022,-6.667,5.501,-3.769
-0.005,-1.073,0.021,-6.485,5.410,-3.712
-0.007,-1.070,0.021,-6.333,5.291,-3.676
-0.009,-1.068,0.020,-6.205,5.159,-3.677
-0.011,-1.065,0.020,-6.110,5.021,-3.691
-0.013,-1.062,0.020,-6.040,4.878,-3.708
-0.015,-1.060,0.019,-5.983,4.722,-3.732
-0.017,-1.058,0.019,-5.928,4.562,-3.761
-0.019,-1.056,0.018,-5.885,4.410,-3.791
-0.020,-1.055,0.017,-5.850,4.255,-3.814
-0.022,-1.053,0.016,-5.834,4.090,-3.821
-0.023,-1.051,0.016,-5.844,3.916,-3.809
-0.024,-1.049,0.015,-5.890,3.750,-3.800
-0.025,-1.048,0.014,-5.959,3.599,-3.789
-0.026,-1.046,0.012,-6.027,3.453,-3.762
-0.027,-1.045,0.011,-6.066,3.297,-3.723
-0.028,-1.044,0.010,-6.069,3.137,-3.700
-0.029,-1.043,0.009,-6.049,2.981,-3.694
-0.030,-1.041,0.008,-6.014,2.836,-3.695
-0.030,-1.040,0.007,-5.960,2.692,-3.688
-0.031,-1.040,0.006,-5.886,2.544,-3.662
-0.031,-1.039,0.005,-5.766,2.399,-3.644
-0.032,-1.038,0.004,-5.639,2.256,-3.644
-0.032,-1.037,0.003,-5.518,2.133,-3.666
-0.033,-1.035,0.003,-5.422,2.014,-3.688
-0.033,-1.034,0.002,-5.358,1.897,-3.687
-0.033,-1.034,0.001,-5.301,1.775,-3.672
-0.033,-1.033,0.000,-5.249,1.653,-3.658
-0.034,-1.032,-0.001,-5.224,1.529,-3.643
-0.034,-1.031,-0.002,-5.224,1.405,-3.624
-0.033,-1.031,-0.003,-5.255,1.288,-3.598
-0.033,-1.031,-0.004,-5.289,1.167,-3.567
-0.034,-1.031,-0.005,-5.315,1.035,-3.535
-0.034,-1.030,-0.005,-5.333,0.898,-3.511
-0.034,-1.030,-0.006,-5.344,0.762,-3.496
-0.034,-1.029,-0.006,-5.349,0.629,-3.475
-0.034,-1.028,-0.006,-5.355,0.502,-3.440
-0.034,-1.028,-0.007,-5.386,0.373,-3.386
-0.034,-1.027,-0.007,-5.457,0.255,-3.322
-0.034,-1.026,-0.008,-5.584,0.146,-3.254
-0.034,-1.026,-0.008,-5.791,0.039,-3.180
-0.035,-1.025,-0.009,-6.154,-0.060,-3.089
-0.035,-1.025,-0.010,-6.631,-0.175,-2.988
-0.035,-1.024,-0.010,-7.198,-0.307,-2.895
-0.036,-1.023,-0.012,-7.771,-0.424,-2.792
-0.036,-1.024,-0.013,-8.252,-0.520,-2.727
-0.037,-1.023,-0.014,-8.648,-0.652,-2.683
-0.038,-1.023,-0.014,-8.974,-0.798,-2.614
-0.038,-1.022,-0.015,-9.237,-0.929,-2.528

-0.146,-1.732,0.228,-7.539,0.168,2.048
-0.134,-1.737,0.210,-0.322,2.510,4.214
-0.119,-1.706,0.199,7.613,7.239,3.095
-0.119,-1.652,0.200,10.349,12.906,-0.012
-0.133,-1.606,0.201,8.201,13.631,-1.843
-0.143,-1.586,0.196,-0.073,8.923,-4.225
-0.149,-1.580,0.197,-9.304,0.606,-8.873
-0.149,-1.580,0.195,-16.386,-5.491,-10.126
-0.133,-1.593,0.194,-20.489,-5.362,-8.395
-0.116,-1.611,0.187,-20.517,-3.795,-6.288
-0.110,-1.613,0.177,-16.296,-2.520,-5.758
-0.111,-1.592,0.166,-12.064,-2.465,-5.279
-0.117,-1.566,0.158,-9.575,-2.599,-4.456
-0.120,-1.540,0.151,-8.885,-2.503,-3.612
-0.119,-1.517,0.145,-9.015,-2.147,-2.648
-0.119,-1.500,0.139,-9.227,-1.680,-1.772
-0.119,-1.485,0.134,-9.233,-1.318,-1.158
-0.120,-1.471,0.131,-8.899,-1.127,-0.906
-0.119,-1.456,0.129,-8.027,-1.239,-0.670
-0.119,-1.442,0.126,-6.550,-2.436,-0.319
-0.119,-1.428,0.126,-4.852,-2.865,-0.108
-0.120,-1.412,0.123,-3.214,-3.236,0.013
-0.121,-1.394,0.121,-1.809,-3.586,0.060
-0.123,-1.377,0.119,-0.721,-3.951,0.078
-0.123,-1.361,0.118,-0.010,-4.264,0.125
-0.123,-1.346,0.116,0.285,-4.424,0.197
-0.123,-1.332,0.115,0.389,-4.483,0.188
-0.123,-1.320,0.113,0.446,-4.494,0.074
-0.123,-1.308,0.111,0.486,-4.581,-0.111
-0.123,-1.297,0.109,0.536,-4.758,-0.338
-0.123,-1.287,0.107,0.521,-4.970,-0.546
-0.123,-1.277,0.105,0.449,-5.178,-0.807
-0.123,-1.268,0.103,0.332,-5.362,-1.182
-0.123,-1.258,0.100,0.166,-5.512,-1.654
-0.122,-1.249,0.098,-0.091,-5.570,-2.223
-0.121,-1.241,0.095,-0.432,-5.558,-2.786
-0.119,-1.233,0.092,-0.823,-5.541,-3.289
-0.118,-1.226,0.089,-1.211,-5.592,-3.710
-0.117,-1.219,0.086,-1.608,-5.714,-4.030
-0.116,-1.213,0.084,-2.061,-5.844,-4.283
-0.115,-1.206,0.081,-2.595,-5.927,-4.487
-0.113,-1.200,0.078,-3.165,-5.952,-4.663
-0.111,-1.195,0.075,-3.688,-5.992,-4.779
-0.110,-1.190,0.072,-4.093,-6.022,-4.880
-0.109,-1.185,0.069,-4.406,-6.009,-4.966
-0.108,-1.181,0.066,-4.622,-5.981,-5.013
-0.107,-1.176,0.063,-4.795,-5.928,-5.017
-0.106,-1.172,0.060,-4.895,-5.851,-4.965
-0.105,-1.167,0.057,-4.947,-5.715,-4.882
-0.104,-1.163,0.054,-4.950,-5.554,-4.845
-0.103,-1.159,0.052,-4.919,-5.383,-4.859
-0.102,-1.154,0.050,-4.862,-5.217,-4.900
-0.101,-1.150,0.049,-4.800,-5.051,-4.913
-0.100,-1.146,0.048,-4.710,-4.898,-4.898
-0.100,-1.142,0.047,-4.570,-4.775,-4.862
-0.099,-1.138,0.045,-4.360,-4.674,-4.805
-0.098,-1.135,0.044,-4.067,-4.608,-4.732
-0.097,-1.132,0.044,-3.717,-4.562,-4.676
-0.096,-1.128,0.044,-3.364,-4.518,-4.645
-0.096,-1.124,0.044,-3.037,-4.465,-4.650
-0.095,-1.121,0.043,-2.758,-4.420,-4.646
-0.094,-1.118,0.042,-2.493,-4.374,-4.602
-0.094,-1.114,0.042,-2.243,-4.325,-4.522
-0.093,-1.111,0.041,-2.020,-4.279,-4.435
-0.092,-1.107,0.041,-1.850,-4.233,-4.351
-0.092,-1.104,0.041,-1.735,-4.165,-4.286
-0.091,-1.101,0.041,-1.659,-4.097,-4.256
-0.091,-1.098,0.040,-1.610,-4.037,-4.245
-0.090,-1.095,0.040,-1.557,-4.005,-4.235
-0.090,-1.092,0.039,-1.483,-3.993,-4.206
-0.089,-1.090,0.039,-1.416,-4.004,-4.170
-0.089,-1.087,0.038,-1.354,-4.023,-4.139
-0.088,-1.085,0.038,-1.307,-4.037,-4.126
-0.088,-1.083,0.037,-1.273,-4.043,-4.118
-0.087,-1.080,0.037,-1.250,-4.045,-4.096
-0.087,-1.078,0.036,-1.225,-4.035,-4.065
-0.086,-1.076,0.035,-1.203,-3.995,-4.037
-0.085,-1.074,0.034,-1.189,-3.926,-4.036
-0.085,-1.071,0.033,-1.189,-3.839,-4.039
-0.084,-1.069,0.033,-1.187,-3.753,-4.024
-0.083,-1.067,0.032,-1.186,-3.667,-3.988
-0.083,-1.064,0.031,-1.172,-3.574,-3.935
-0.082,-1.062,0.031,-1.146,-3.494,-3.874
-0.081,-1.060,0.030,-1.120,-3.431,-3.818
-0.081,-1.058,0.030,-1.092,-3.381,-3.770
-0.080,-1.056,0.029,-1.048,-3.345,-3.730
-0.079,-1.054,0.028,-0.986,-3.331,-3.713
-0.079,-1.053,0.028,-0.870,-3.350,-3.737
-0.078,-1.051,0.027,-0.726,-3.404,-3.776
-0.078,-1.050,0.027,-0.589,-3.502,-3.827
-0.077,-1.049,0.027,-0.481,-3.614,-3.885
-0.076,-1.049,0.027,-0.430,-3.737,-3.967
-0.075,-1.048,0.026,-0.420,-3.871,-4.054
-0.074,-1.048,0.026,-0.441,-4.013,-4.131
-0.073,-1.047,0.026,-0.495,-4.160,-4.185
-0.073,-1.046,0.027,-0.612,-4.310,-4.209
-0.072,-1.045,0.028,-0.779,-4.491,-4.196
-0.072,-1.044,0.028,-0.947,-4.692,-4.177
-0.071,-1.044,0.028,-1.065,-4.910,-4.196
-0.071,-1.044,0.028,-1.133,-5.122,-4.232
-0.070,-1.045,0.029,-1.149,-5.307,-4.277
-0.070,-1.045,0.029,-1.156,-5.465,-4.271
-0.069,-1.046,0.029,-1.130,-5.592,-4.216
-0.068,-1.045,0.028,-1.120,-5.718,-4.138
-0.068,-1.045,0.028,-1.203,-5.828,-4.035
-0.068,-1.044,0.028,-1.480,-5.900,-3.856
-0.067,-1.042,0.028,-1.866,-5.938,-3.623
-0.066,-1.042,0.027,-2.292,-5.940,-3.381
-0.066,-1.042,0.027,-2.726,-5.938,-3.149
-0.065,-1.043,0.026,-3.070,-5.955,-2.916
-0.065,-1.044,0.026,-3.305,-5.984,-2.686
-0.065,-1.045,0.026,-3.442,-6.029,-2.487
-0.064,-1.045,0.026,-3.491,-6.090,-2.316
-0.064,-1.045,0.027,-3.485,-6.156,-2.164
-0.064,-1.045,0.027,-3.429,-6.219,-2.035
-0.064,-1.045,0.027,-3.327,-6.281,-1.912
-0.063,-1.044,0.027,-3.166,-6.311,-1.769
-0.063,-1.043,0.028,-3.031,-6.307,-1.573
-0.062,-1.042,0.028,-2.942,-6.278,-1.332

0.027,-1.870,0.116,2.598,-2.221,0.212
0.018,-1.908,0.112,21.707,-1.304,-1.502
0.040,-1.904,0.107,44.181,-1.075,-4.638
0.052,-1.870,0.126,50.412,0.064,-9.667
0.055,-1.818,0.131,49.117,4.794,-17.147
0.047,-1.766,0.128,38.662,5.877,-22.829
0.032,-1.734,0.117,24.758,5.102,-25.899
0.006,-1.732,0.120,8.599,1.359,-30.113
-0.003,-1.734,0.117,-3.635,-3.986,-33.668
-0.003,-1.738,0.116,-11.750,-8.060,-34.059
0.011,-1.750,0.116,-16.642,-9.356,-32.618
0.027,-1.764,0.116,-17.884,-9.206,-29.882
0.037,-1.767,0.114,-17.624,-8.643,-27.288
0.039,-1.760,0.112,-15.963,-8.290,-25.052
0.036,-1.745,0.110,-13.321,-8.146,-23.093
0.031,-1.722,0.109,-10.564,-7.917,-21.634
0.025,-1.697,0.107,-8.346,-7.564,-20.551
0.020,-1.671,0.105,-6.474,-7.040,-19.392
0.017,-1.646,0.103,-4.813,-6.398,-18.004
0.014,-1.623,0.101,-4.054,-5.720,-16.438
0.011,-1.601,0.100,-2.732,-5.031,-15.005
0.008,-1.579,0.100,-1.689,-4.410,-13.819
0.006,-1.558,0.101,-0.896,-3.914,-12.755
0.004,-1.538,0.102,-0.141,-3.649,-11.401
0.002,-1.520,0.103,0.834,-3.396,-10.081
-0.001,-1.500,0.104,1.930,-3.112,-8.915
-0.004,-1.480,0.106,3.083,-2.846,-7.912
-0.007,-1.460,0.108,4.099,-2.583,-6.991
-0.009,-1.441,0.110,4.856,-2.310,-6.145
-0.011,-1.422,0.112,5.382,-2.098,-5.415
-0.013,-1.404,0.114,5.693,-1.967,-4.850
-0.015,-1.387,0.115,5.779,-1.863,-4.457
-0.016,-1.372,0.116,5.621,-1.720,-4.263
-0.016,-1.357,0.116,5.336,-1.544,-4.189
-0.016,-1.343,0.115,4.933,-1.405,-4.199
-0.017,-1.329,0.113,4.431,-1.339,-4.280
-0.018,-1.316,0.112,3.742,-1.330,-4.424
-0.018,-1.304,0.110,2.903,-1.352,-4.575
-0.014,-1.293,0.107,1.979,-1.406,-4.721
-0.013,-1.283,0.105,1.044,-1.476,-4.895
-0.012,-1.274,0.102,0.131,-1.576,-5.096
-0.011,-1.265,0.100,-0.727,-1.686,-5.316
-0.010,-1.256,0.098,-1.558,-1.781,-5.507
-0.008,-1.248,0.095,-2.339,-1.885,-5.648
-0.007,-1.240,0.093,-3.033,-2.002,-5.750
-0.006,-1.234,0.091,-3.635,-2.142,-5.789
-0.004,-1.229,0.087,-4.051,-2.317,-5.809
-0.002,-1.224,0.086,-4.365,-2.463,-5.729
-0.001,-1.218,0.084,-4.587,-2.548,-5.693
-0.001,-1.213,0.078,-4.702,-2.688,-5.674
-0.000,-1.208,0.076,-4.734,-2.808,-5.665
0.000,-1.204,0.074,-4.744,-2.869,-5.665
0.001,-1.199,0.073,-4.730,-2.856,-5.656
0.001,-1.195,0.071,-4.722,-2.789,-5.647
0.001,-1.190,0.070,-4.728,-2.676,-5.655
0.001,-1.186,0.070,-4.741,-2.531,-5.678
0.000,-1.182,0.069,-4.753,-2.356,-5.671
0.000,-1.178,0.069,-4.740,-2.144,-5.606
-0.000,-1.174,0.070,-4.677,-1.911,-5.509
-0.001,-1.170,0.070,-4.566,-1.651,-5.384
-0.002,-1.166,0.071,-4.431,-1.385,-5.227
-0.003,-1.162,0.071,-4.283,-1.118,-5.039
-0.004,-1.158,0.072,-4.132,-0.875,-4.818
-0.005,-1.153,0.072,-3.980,-0.661,-4.575
-0.006,-1.149,0.073,-3.833,-0.474,-4.340
-0.007,-1.146,0.074,-3.673,-0.313,-4.136
-0.008,-1.142,0.075,-3.493,-0.189,-3.973
-0.009,-1.138,0.075,-3.303,-0.106,-3.823
-0.009,-1.135,0.076,-3.108,-0.065,-3.664
-0.010,-1.131,0.076,-2.924,-0.589,-3.499
-0.011,-1.127,0.077,-2.772,-0.607,-3.339
-0.011,-1.124,0.077,-2.635,-0.653,-3.217
-0.011,-1.120,0.078,-2.517,-0.718,-3.114
-0.012,-1.117,0.078,-2.401,-0.801,-3.008
-0.011,-1.114,0.078,-2.283,-0.917,-2.889
-0.011,-1.111,0.078,-2.127,-1.061,-2.758
-0.011,-1.108,0.078,-1.940,-1.219,-2.642
-0.011,-1.105,0.078,-1.747,-1.374,-2.547
-0.011,-1.103,0.078,-1.552,-1.534,-2.457
-0.011,-1.100,0.077,-1.342,-1.689,-2.349
-0.011,-1.096,0.077,-1.143,-1.840,-2.230
-0.011,-1.094,0.076,-0.962,-1.975,-2.118
-0.011,-1.091,0.076,-0.798,-2.088,-2.032
-0.010,-1.088,0.075,-0.647,-2.182,-1.956
-0.010,-1.085,0.075,-0.510,-2.272,-1.874
-0.010,-1.082,0.075,-0.391,-2.356,-1.789
-0.010,-1.079,0.074,-0.287,-2.432,-1.718
-0.010,-1.076,0.074,-0.190,-2.505,-1.661
-0.010,-1.074,0.074,-0.099,-2.564,-1.619
-0.009,-1.071,0.073,-0.008,-2.611,-1.594
-0.009,-1.069,0.073,0.071,-2.643,-1.596
-0.009,-1.066,0.072,0.138,-2.671,-1.604
-0.009,-1.064,0.072,0.189,-2.694,-1.608
-0.008,-1.062,0.072,0.214,-2.711,-1.608
-0.008,-1.060,0.072,0.228,-2.716,-1.610
-0.008,-1.058,0.071,0.223,-2.714,-1.603
-0.008,-1.057,0.071,0.202,-2.709,-1.584
-0.007,-1.055,0.070,0.168,-2.699,-1.540
-0.007,-1.053,0.070,0.126,-2.681,-1.486
-0.007,-1.051,0.070,0.060,-2.645,-1.443
-0.007,-1.050,0.069,-0.001,-2.599,-1.415
-0.007,-1.048,0.069,-0.059,-2.550,-1.401
-0.007,-1.047,0.069,-0.109,-2.504,-1.392
-0.007,-1.046,0.069,-0.149,-2.460,-1.388
-0.007,-1.045,0.069,-0.177,-2.424,-1.390
-0.007,-1.044,0.069,-0.197,-2.406,-1.395
-0.007,-1.043,0.070,-0.214,-2.402,-1.389
-0.007,-1.043,0.070,-0.216,-2.414,-1.368
-0.007,-1.042,0.070,-0.202,-2.442,-1.346
-0.007,-1.041,0.071,-0.187,-2.478,-1.327
-0.007,-1.041,0.071,-0.175,-2.510,-1.298
-0.008,-1.040,0.071,-0.155,-2.538,-1.264
-0.008,-1.039,0.072,-0.146,-2.571,-1.218
-0.009,-1.037,0.072,-0.148,-2.608,-1.176
-0.010,-1.037,0.072,-0.148,-2.640,-1.146
-0.011,-1.036,0.073,-0.148,-2.669,-1.155
-0.012,-1.036,0.073,-0.128,-2.700,-1.188
-0.013,-1.036,0.074,-0.068,-2.738,-1.229
-0.013,-1.036,0.074,0.043,-2.786,-1.274

0.426,-1.537,0.046,-7.240,-2.812,-14.657
0.417,-1.596,0.052,-12.128,-2.250,-15.626
0.390,-1.640,0.054,-12.592,-2.119,-13.079
0.369,-1.664,0.065,-12.689,-2.015,-7.384
0.354,-1.672,0.072,-11.798,-2.959,-1.190
0.339,-1.671,0.084,-10.194,-4.012,2.966
0.326,-1.660,0.096,-8.716,-4.514,5.438
0.313,-1.640,0.106,-7.705,-4.038,7.463
0.302,-1.616,0.112,-6.683,-2.395,9.042
0.292,-1.589,0.118,-5.705,-0.559,10.077
0.280,-1.562,0.120,-4.861,0.539,10.602
0.269,-1.536,0.122,-4.137,0.798,10.863
0.260,-1.512,0.121,-3.384,0.571,11.030
0.254,-1.491,0.119,-2.364,0.174,11.234
0.250,-1.471,0.117,-1.219,-0.137,11.513
0.247,-1.453,0.115,-0.036,-0.310,11.862
0.244,-1.436,0.113,1.052,-0.501,12.194
0.242,-1.421,0.111,1.988,-0.805,12.304
0.239,-1.406,0.109,2.885,-1.014,12.331
0.237,-1.393,0.109,3.421,-1.212,12.350
0.234,-1.379,0.108,3.861,-1.557,12.168
0.230,-1.364,0.108,4.153,-2.379,11.799
0.226,-1.351,0.108,4.271,-3.452,11.245
0.223,-1.338,0.108,4.190,-4.181,10.634
0.220,-1.326,0.108,3.990,-4.532,10.127
0.217,-1.315,0.107,3.785,-4.647,9.763
0.214,-1.306,0.106,3.690,-4.713,9.483
0.211,-1.296,0.106,3.631,-4.543,9.218
0.208,-1.286,0.105,3.493,-4.144,8.994
0.205,-1.277,0.104,3.330,-3.721,8.789
0.201,-1.268,0.103,3.157,-3.332,8.592
0.197,-1.260,0.102,2.978,-3.006,8.401
0.193,-1.251,0.100,2.778,-2.770,8.229
0.189,-1.243,0.098,2.498,-2.601,8.040
0.186,-1.235,0.097,2.137,-2.434,7.816
0.183,-1.227,0.095,1.702,-2.238,7.567
0.180,-1.219,0.093,1.264,-1.967,7.294
0.177,-1.213,0.092,0.901,-1.719,6.992
0.174,-1.207,0.091,0.624,-1.529,6.631
0.171,-1.201,0.090,0.490,-1.398,6.275
0.168,-1.196,0.089,0.420,-1.318,5.926
0.165,-1.190,0.089,0.366,-1.276,5.589
0.162,-1.184,0.088,0.297,-1.366,5.262
0.159,-1.177,0.088,0.226,-1.526,4.897
0.156,-1.171,0.088,0.073,-1.679,4.452
0.154,-1.164,0.088,-0.162,-1.775,3.956
0.151,-1.158,0.089,-0.435,-1.853,3.427
0.149,-1.152,0.089,-0.709,-1.950,2.875
0.146,-1.147,0.089,-0.960,-2.073,2.317
0.144,-1.142,0.090,-1.164,-2.212,1.753
0.142,-1.138,0.090,-1.268,-2.374,1.225
0.140,-1.135,0.090,-1.287,-2.537,0.755
0.139,-1.132,0.091,-1.227,-2.701,0.365
0.137,-1.129,0.091,-1.102,-2.844,0.042
0.136,-1.126,0.092,-0.945,-2.938,-0.212
0.135,-1.123,0.093,-0.805,-2.990,-0.405
0.134,-1.120,0.093,-0.678,-3.007,-0.568
0.132,-1.117,0.094,-0.564,-3.023,-0.718
0.130,-1.114,0.095,-0.524,-3.042,-0.850
0.129,-1.111,0.096,-0.492,-3.061,-0.978
0.127,-1.109,0.097,-0.428,-3.089,-1.109
0.126,-1.106,0.098,-0.322,-3.101,-1.230
0.124,-1.104,0.099,-0.164,-3.090,-1.334
0.123,-1.102,0.099,0.057,-3.054,-1.405
0.122,-1.100,0.099,0.376,-2.968,-1.409
0.121,-1.097,0.099,0.744,-2.855,-1.363
0.120,-1.095,0.099,1.136,-2.718,-1.280
0.119,-1.092,0.100,1.503,-2.583,-1.192
0.118,-1.089,0.100,1.815,-2.462,-1.098
0.117,-1.086,0.101,2.006,-2.351,-1.029
0.116,-1.082,0.101,2.111,-2.246,-1.004
0.115,-1.080,0.102,2.165,-2.158,-1.019
0.114,-1.077,0.103,2.149,-2.090,-1.051
0.113,-1.075,0.104,2.106,-2.032,-1.099
0.113,-1.074,0.105,2.068,-1.970,-1.128
0.112,-1.073,0.105,2.057,-1.870,-1.114
0.112,-1.072,0.105,2.110,-1.724,-1.051
0.111,-1.070,0.104,2.204,-1.563,-0.936
0.110,-1.069,0.104,2.301,-1.417,-0.789
0.109,-1.063,0.104,2.361,-1.279,-0.623
0.108,-1.061,0.104,2.344,-1.164,-0.486
0.106,-1.059,0.105,2.261,-1.094,-0.406
0.105,-1.057,0.105,2.139,-1.057,-0.387
0.104,-1.055,0.106,1.968,-1.044,-0.407
0.103,-1.053,0.106,1.805,-1.033,-0.431
0.102,-1.052,0.107,1.665,-0.423,-0.429
0.101,-1.050,0.107,1.556,-0.385,-0.390
0.101,-1.049,0.107,1.484,-0.321,-0.317
0.100,-1.048,0.108,1.454,-0.244,-0.196
0.100,-1.047,0.108,1.424,-0.162,-0.056
0.099,-1.045,0.108,1.389,-0.080,0.091
0.099,-1.043,0.108,1.337,-0.022,0.233
0.098,-1.042,0.109,1.252,0.011,0.363
0.097,-1.040,0.109,1.130,0.034,0.475
0.097,-1.039,0.110,0.985,0.056,0.577
0.096,-1.038,0.111,0.823,0.083,0.680
0.096,-1.037,0.111,0.650,0.132,0.795
0.095,-1.036,0.108,0.479,0.206,0.923
0.095,-1.035,0.108,0.328,0.311,1.046
0.095,-1.035,0.109,0.206,0.426,1.171
0.094,-1.035,0.109,0.093,0.551,1.314
0.094,-1.035,0.109,0.005,0.685,1.479
0.094,-1.035,0.109,-0.064,0.815,1.648
0.093,-1.036,0.110,-0.138,0.937,1.829
0.093,-1.036,0.110,-0.209,1.043,2.018
0.092,-1.036,0.111,-0.285,1.130,2.224
0.092,-1.036,0.111,-0.376,1.196,2.419
0.092,-1.037,0.112,-0.463,1.248,2.592
0.091,-1.038,0.113,-0.510,1.289,2.770
0.091,-1.038,0.114,-0.528,1.327,2.980
0.091,-1.040,0.116,-0.522,1.374,3.229
0.091,-1.042,0.117,-0.479,1.443,3.496
0.091,-1.044,0.117,-0.352,1.531,3.829
0.091,-1.046,0.119,-0.179,1.631,4.206
0.091,-1.049,0.120,0.023,1.725,4.618
0.090,-1.052,0.122,0.298,1.813,5.065
0.090,-1.055,0.124,0.644,1.915,5.550
0.090,-1.059,0.125,1.045,2.045,6.129
0.089,-1.062,0.127,1.534,2.204,6.797

0.537,-1.266,0.228,-33.655,-1.269,-19.537
0.547,-1.365,0.238,-50.396,-1.000,-33.223
0.534,-1.460,0.231,-51.847,0.638,-39.883
0.519,-1.512,0.234,-51.106,5.569,-39.094
0.506,-1.542,0.230,-49.751,9.830,-36.377
0.492,-1.560,0.227,-47.329,11.355,-34.031
0.473,-1.566,0.230,-46.269,11.477,-31.159
0.451,-1.566,0.228,-44.448,11.284,-28.600
0.436,-1.563,0.226,-42.179,10.804,-24.898
0.422,-1.554,0.225,-39.314,10.392,-21.438
0.409,-1.538,0.225,-36.760,10.406,-18.457
0.395,-1.518,0.227,-34.569,10.725,-16.073
0.382,-1.497,0.227,-32.398,10.691,-14.262
0.370,-1.478,0.228,-29.831,10.374,-12.907
0.359,-1.458,0.227,-27.050,9.884,-11.853
0.352,-1.436,0.227,-24.643,9.467,-10.906
0.346,-1.415,0.226,-22.751,9.177,-10.003
0.342,-1.395,0.226,-21.204,9.052,-9.196
0.338,-1.379,0.225,-19.774,9.045,-8.554
0.334,-1.363,0.225,-18.490,9.045,-8.118
0.330,-1.349,0.225,-17.422,8.953,-7.815
0.326,-1.336,0.223,-16.508,8.738,-8.118
0.323,-1.323,0.223,-15.838,8.446,-7.824
0.320,-1.316,0.222,-15.009,7.983,-7.548
0.316,-1.307,0.219,-13.853,6.977,-7.520
0.311,-1.298,0.217,-12.649,5.704,-7.631
0.308,-1.289,0.216,-11.584,4.875,-7.775
0.307,-1.279,0.214,-10.775,4.583,-7.768
0.304,-1.270,0.211,-10.096,4.528,-7.590
0.301,-1.263,0.209,-9.425,4.535,-7.370
0.297,-1.255,0.207,-8.831,4.537,-7.088
0.293,-1.247,0.205,-8.302,4.545,-6.867
0.289,-1.239,0.203,-7.899,4.602,-6.697
0.285,-1.231,0.201,-7.676,4.694,-6.536
0.281,-1.225,0.199,-7.503,4.767,-6.385
0.277,-1.219,0.197,-7.322,4.755,-6.232
0.273,-1.214,0.195,-7.133,4.735,-6.068
0.270,-1.209,0.193,-6.910,4.770,-5.854
0.267,-1.204,0.191,-6.644,4.881,-5.586
0.263,-1.200,0.190,-6.407,5.055,-5.277
0.259,-1.196,0.189,-6.231,5.238,-4.935
0.254,-1.191,0.188,-6.040,5.378,-4.558
0.250,-1.187,0.187,-5.814,5.444,-4.183
0.245,-1.182,0.185,-5.562,5.434,-3.860
0.240,-1.177,0.185,-5.291,5.369,-3.617
0.235,-1.171,0.185,-5.034,5.263,-3.399
0.230,-1.165,0.185,-4.868,5.046,-3.207
0.224,-1.159,0.184,-4.778,4.743,-3.138
0.219,-1.153,0.184,-4.760,4.458,-3.126
0.214,-1.147,0.185,-4.813,4.301,-3.139
0.210,-1.142,0.185,-4.893,4.215,-3.150
0.205,-1.137,0.185,-4.938,4.158,-3.134
0.201,-1.133,0.185,-4.880,4.081,-3.035
0.196,-1.129,0.185,-4.788,3.958,-2.881
0.192,-1.125,0.185,-4.698,3.789,-2.682
0.189,-1.121,0.186,-4.634,3.618,-2.455
0.185,-1.118,0.186,-4.579,3.447,-2.201
0.182,-1.114,0.186,-4.508,3.283,-1.935
0.179,-1.111,0.186,-4.412,3.125,-1.663
0.176,-1.108,0.187,-4.313,2.979,-1.385
0.173,-1.105,0.187,-4.215,2.854,-1.109
0.170,-1.102,0.187,-4.103,2.740,-0.827
0.167,-1.098,0.187,-3.973,2.625,-0.540
0.165,-1.095,0.187,-3.850,2.523,-0.260
0.162,-1.092,0.187,-3.739,2.426,0.013
0.160,-1.089,0.187,-3.652,2.332,0.254
0.158,-1.085,0.187,-3.600,2.252,0.473
0.156,-1.082,0.188,-3.570,2.196,0.663
0.154,-1.079,0.188,-3.588,2.141,0.828
0.152,-1.076,0.188,-3.612,2.077,0.970
0.150,-1.074,0.188,-3.629,2.002,1.100
0.149,-1.072,0.188,-3.613,1.932,1.249
0.148,-1.070,0.188,-3.557,1.866,1.429
0.147,-1.068,0.188,-3.475,1.835,1.658
0.146,-1.067,0.188,-3.367,1.840,1.925
0.145,-1.065,0.188,-3.239,1.870,2.202
0.144,-1.064,0.187,-3.102,1.914,2.490
0.143,-1.061,0.187,-2.959,1.964,2.795
0.141,-1.059,0.186,-2.840,1.990,3.104
0.139,-1.057,0.185,-3.286,1.986,3.360
0.138,-1.054,0.185,-3.279,1.964,3.575
0.136,-1.052,0.185,-3.311,1.929,3.737
0.135,-1.050,0.185,-3.343,1.879,3.849
0.133,-1.049,0.185,-3.354,1.815,3.932
0.131,-1.047,0.186,-3.323,1.730,4.001
0.130,-1.047,0.186,-3.220,1.629,4.065
0.128,-1.046,0.186,-3.047,1.514,4.134
0.126,-1.045,0.186,-2.784,1.384,4.221
0.125,-1.044,0.186,-2.449,1.229,4.321
0.122,-1.044,0.186,-2.076,1.042,4.418
0.120,-1.043,0.186,-1.685,0.838,4.497
0.119,-1.041,0.187,-1.311,0.626,4.568
0.117,-1.040,0.187,-0.972,0.384,4.628
0.114,-1.039,0.188,-0.638,0.108,4.680
0.112,-1.038,0.189,-0.315,-0.203,4.727
0.110,-1.038,0.190,0.008,-0.543,4.762
0.108,-1.038,0.191,0.326,-0.893,4.798
0.107,-1.038,0.192,0.654,-1.238,4.841
0.105,-1.038,0.194,1.038,-1.587,4.898
0.103,-1.039,0.195,1.481,-1.935,4.984
0.102,-1.040,0.197,1.992,-2.273,5.119
0.101,-1.041,0.199,2.587,-2.561,5.306
0.099,-1.042,0.201,3.247,-2.793,5.542
0.099,-1.043,0.203,3.969,-2.961,5.766
0.099,-1.042,0.205,4.654,-3.000,5.858
0.099,-1.042,0.207,5.200,-2.952,5.937
0.097,-1.042,0.208,5.574,-2.854,5.995
0.095,-1.042,0.210,5.893,-2.763,6.059
0.094,-1.043,0.211,6.150,-2.699,6.215
0.093,-1.045,0.212,6.348,-2.667,6.472
0.093,-1.047,0.214,6.562,-2.644,6.807
0.092,-1.049,0.215,6.812,-2.627,7.189
0.092,-1.052,0.216,6.996,-2.702,7.413
0.093,-1.054,0.217,7.399,-2.689,7.748
0.093,-1.056,0.219,7.692,-2.483,8.162
0.092,-1.058,0.221,7.944,-2.133,8.715
0.091,-1.060,0.223,8.227,-1.686,9.459
0.090,-1.062,0.224,8.522,-1.175,10.392
0.089,-1.064,0.226,8.810,-0.636,11.533

0.243,-1.542,0.530,-44.643,-7.500,10.736
0.248,-1.797,0.551,-34.301,-9.669,9.136
0.249,-1.942,0.552,-6.964,-10.226,10.534
0.259,-1.932,0.562,42.070,-9.894,9.861
0.257,-1.849,0.555,71.012,-5.836,7.140
0.248,-1.739,0.532,71.628,17.791,-5.780
0.233,-1.655,0.494,60.819,20.261,-15.966
0.200,-1.597,0.474,31.438,18.172,-28.847
0.167,-1.600,0.467,-11.550,9.030,-45.362
0.165,-1.618,0.451,-43.809,-7.649,-47.592
0.170,-1.665,0.439,-52.141,-22.379,-45.811
0.188,-1.720,0.425,-51.183,-24.147,-42.067
0.203,-1.750,0.404,-43.934,-23.000,-39.361
0.208,-1.749,0.384,-29.065,-20.122,-37.974
0.204,-1.728,0.370,-16.940,-17.533,-36.828
0.190,-1.701,0.355,-9.145,-16.543,-35.811
0.173,-1.670,0.342,-5.228,-16.546,-35.047
0.158,-1.640,0.330,-4.391,-17.377,-34.323
0.149,-1.616,0.322,-4.061,-18.479,-33.310
0.146,-1.598,0.316,-3.992,-19.221,-31.784
0.144,-1.584,0.312,-3.776,-19.373,-30.016
0.141,-1.571,0.308,-3.094,-19.332,-28.365
0.137,-1.558,0.304,-1.531,-19.309,-26.987
0.131,-1.540,0.300,0.524,-19.372,-25.681
0.125,-1.520,0.297,2.627,-19.431,-24.243
0.119,-1.500,0.294,4.540,-19.323,-22.782
0.113,-1.480,0.289,6.162,-19.068,-21.606
0.109,-1.460,0.285,7.319,-18.643,-20.455
0.106,-1.442,0.280,8.179,-18.195,-19.226
0.101,-1.426,0.274,8.785,-17.809,-18.106
0.095,-1.410,0.270,9.165,-17.508,-17.127
0.091,-1.395,0.265,9.303,-17.295,-16.204
0.087,-1.382,0.261,9.211,-17.165,-15.146
0.083,-1.370,0.258,9.061,-17.112,-14.020
0.079,-1.359,0.254,8.917,-17.082,-13.029
0.075,-1.348,0.249,8.775,-17.004,-12.244
0.072,-1.337,0.245,8.619,-16.850,-11.609
0.070,-1.327,0.239,8.409,-16.611,-11.098
0.068,-1.317,0.234,8.179,-16.333,-10.630
0.066,-1.307,0.228,7.961,-16.088,-10.176
0.065,-1.298,0.222,7.781,-15.920,-9.716
0.063,-1.289,0.216,7.659,-15.846,-9.224
0.062,-1.280,0.212,7.597,-15.837,-8.679
0.062,-1.272,0.207,7.574,-15.867,-8.094
0.062,-1.264,0.203,7.586,-15.893,-7.472
0.062,-1.256,0.200,7.637,-15.868,-6.939
0.062,-1.248,0.196,7.722,-15.845,-6.523
0.061,-1.239,0.193,7.789,-15.828,-6.222
0.061,-1.231,0.190,7.811,-15.793,-5.966
0.061,-1.224,0.187,7.796,-15.723,-5.717
0.061,-1.217,0.184,7.747,-15.622,-5.484
0.061,-1.210,0.182,7.672,-15.497,-5.319
0.060,-1.202,0.179,7.557,-15.386,-5.214
0.060,-1.195,0.177,7.406,-15.292,-5.136
0.059,-1.189,0.175,7.222,-15.247,-5.112
0.059,-1.182,0.173,7.024,-15.212,-5.069
0.058,-1.176,0.172,6.748,-15.162,-5.063
0.057,-1.170,0.171,6.462,-15.130,-5.055
0.056,-1.164,0.169,6.167,-15.130,-5.053
0.055,-1.159,0.167,5.869,-15.126,-5.045
0.055,-1.155,0.166,5.582,-15.114,-5.020
0.054,-1.150,0.165,5.328,-15.098,-5.003
0.053,-1.146,0.164,5.095,-15.072,-4.993
0.052,-1.143,0.163,4.902,-15.064,-4.985
0.051,-1.140,0.162,4.738,-15.071,-4.953
0.050,-1.136,0.161,4.601,-15.083,-4.906
0.048,-1.134,0.161,4.488,-15.112,-4.863
0.043,-1.131,0.160,4.405,-15.192,-4.833
0.041,-1.127,0.159,4.346,-15.332,-4.812
0.040,-1.124,0.158,4.325,-15.521,-4.792
0.038,-1.121,0.158,4.357,-15.745,-4.741
0.037,-1.118,0.158,4.439,-15.958,-4.692
0.036,-1.115,0.158,4.579,-16.147,-4.654
0.034,-1.113,0.158,4.755,-16.314,-4.636
0.033,-1.110,0.157,4.938,-16.446,-4.601
0.032,-1.107,0.157,5.079,-16.550,-4.585
0.031,-1.104,0.156,5.190,-16.671,-4.575
0.030,-1.101,0.155,5.311,-16.817,-4.559
0.029,-1.099,0.155,5.435,-16.970,-4.517
0.028,-1.092,0.154,5.529,-17.118,-4.467
0.027,-1.089,0.154,5.604,-17.261,-4.427
0.027,-1.086,0.153,5.689,-17.412,-4.393
0.026,-1.083,0.152,5.767,-17.566,-4.357
0.025,-1.080,0.152,5.811,-17.696,-4.309
0.025,-1.077,0.151,5.833,-17.831,-4.253
0.025,-1.075,0.150,5.897,-17.968,-4.206
0.025,-1.073,0.148,5.996,-18.087,-4.151
0.025,-1.071,0.147,6.095,-18.163,-4.088
0.026,-1.069,0.146,6.224,-18.200,-4.033
0.026,-1.067,0.145,6.385,-18.202,-4.024
0.027,-1.064,0.144,6.573,-18.173,-4.020
0.027,-1.062,0.143,6.787,-18.101,-3.998
0.028,-1.060,0.142,7.032,-17.987,-3.963
0.028,-1.056,0.141,7.292,-17.845,-3.922
0.029,-1.053,0.140,7.539,-17.697,-3.876
0.029,-1.051,0.139,7.735,-17.551,-3.822
0.030,-1.049,0.139,7.864,-17.414,-3.758
0.031,-1.047,0.139,7.921,-17.297,-3.681
0.032,-1.046,0.140,7.921,-17.199,-3.608
0.033,-1.046,0.141,7.879,-17.113,-3.585
0.033,-1.046,0.141,7.838,-17.055,-3.628
0.034,-1.046,0.142,7.828,-17.032,-3.689
0.035,-1.046,0.144,7.810,-17.073,-3.720
0.036,-1.046,0.145,7.783,-17.131,-3.696
0.036,-1.046,0.147,7.747,-17.214,-3.613
0.037,-1.046,0.148,7.728,-17.282,-3.482
0.038,-1.045,0.149,7.698,-17.311,-3.327
0.038,-1.044,0.150,7.639,-17.276,-3.156
0.038,-1.044,0.152,7.522,-17.258,-2.972
0.039,-1.045,0.153,7.364,-17.269,-2.844
0.039,-1.046,0.155,7.186,-17.272,-2.746
0.040,-1.048,0.157,6.989,-17.281,-2.692
0.041,-1.050,0.158,6.826,-17.357,-2.625
0.042,-1.053,0.160,6.787,-17.490,-2.484
0.043,-1.056,0.162,6.865,-17.730,-2.352
0.046,-1.060,0.168,7.180,-18.035,-2.191
0.047,-1.065,0.172,7.717,-18.161,-1.753
0.046,-1.070,0.177,8.379,-18.164,-0.951
0.045,-1.074,0.180,9.333,-18.060,0.167

0.094,-2.044,0.182,11.960,-16.751,28.253
0.081,-2.158,0.192,76.432,-20.546,25.879
0.076,-2.072,0.188,113.414,-21.960,25.314
0.085,-1.962,0.176,121.262,-20.309,24.733
0.085,-1.883,0.192,115.675,-14.871,22.802
0.072,-1.851,0.207,84.740,-13.164,14.820
0.061,-1.833,0.200,45.907,-13.398,-5.652
0.048,-1.823,0.181,23.118,-16.173,-24.443
0.028,-1.838,0.176,9.913,-21.492,-21.184
0.040,-1.895,0.167,10.429,-24.118,-17.000
0.055,-1.925,0.163,17.497,-23.761,-15.270
0.058,-1.905,0.156,28.163,-20.749,-14.134
0.043,-1.855,0.151,32.813,-18.160,-12.818
0.033,-1.808,0.141,34.108,-16.981,-10.557
0.033,-1.773,0.134,33.922,-16.697,-6.969
0.033,-1.748,0.131,33.471,-17.032,-3.122
0.029,-1.727,0.131,33.297,-17.364,-0.109
0.025,-1.707,0.131,34.637,-17.506,1.396
0.021,-1.687,0.133,37.293,-17.311,1.957
0.018,-1.663,0.136,40.318,-16.745,2.062
0.014,-1.634,0.137,42.531,-15.739,1.866
0.010,-1.603,0.137,43.433,-14.889,1.701
0.006,-1.574,0.137,43.407,-14.275,1.607
0.003,-1.549,0.136,42.696,-13.810,1.605
0.000,-1.526,0.135,41.776,-13.517,1.690
-0.003,-1.506,0.139,40.807,-13.413,1.782
-0.006,-1.488,0.139,39.858,-13.529,1.882
-0.009,-1.471,0.139,38.979,-13.728,1.986
-0.011,-1.455,0.139,38.161,-13.913,2.101
-0.013,-1.440,0.139,37.322,-14.008,2.200
-0.015,-1.425,0.139,36.422,-13.959,2.250
-0.016,-1.410,0.138,35.436,-13.948,2.195
-0.019,-1.396,0.138,34.183,-14.004,2.058
-0.020,-1.382,0.137,32.714,-14.046,1.886
-0.022,-1.369,0.136,31.009,-14.016,1.670
-0.024,-1.357,0.135,29.143,-13.954,1.410
-0.025,-1.345,0.134,27.203,-13.888,1.094
-0.027,-1.335,0.132,25.295,-13.800,0.793
-0.028,-1.325,0.131,23.483,-13.764,0.578
-0.030,-1.316,0.129,21.793,-13.723,0.434
-0.032,-1.307,0.127,20.243,-13.711,0.378
-0.033,-1.299,0.125,18.958,-13.725,0.389
-0.035,-1.292,0.123,17.898,-13.725,0.428
-0.036,-1.284,0.121,17.025,-13.695,0.462
-0.038,-1.277,0.119,16.304,-13.652,0.485
-0.039,-1.269,0.118,15.729,-13.566,0.518
-0.041,-1.262,0.116,15.262,-13.412,0.551
-0.042,-1.255,0.115,14.890,-13.213,0.590
-0.043,-1.248,0.114,14.568,-12.959,0.627
-0.044,-1.241,0.113,14.268,-12.677,0.631
-0.045,-1.234,0.113,13.989,-12.375,0.587
-0.046,-1.227,0.112,13.730,-12.071,0.526
-0.046,-1.221,0.111,13.511,-11.770,0.461
-0.046,-1.214,0.111,13.352,-11.487,0.370
-0.047,-1.207,0.111,13.234,-11.235,0.280
-0.048,-1.200,0.111,13.125,-11.015,0.183
-0.050,-1.193,0.111,13.005,-10.819,0.065
-0.050,-1.187,0.111,12.859,-10.640,-0.073
-0.051,-1.180,0.111,12.684,-10.462,-0.216
-0.052,-1.174,0.110,12.481,-10.294,-0.357
-0.053,-1.168,0.110,12.272,-10.159,-0.488
-0.053,-1.161,0.111,12.072,-10.075,-0.610
-0.054,-1.155,0.111,11.851,-10.024,-0.737
-0.054,-1.148,0.112,11.561,-9.986,-0.872
-0.054,-1.143,0.112,11.251,-9.979,-1.005
-0.054,-1.138,0.113,10.947,-9.989,-1.161
-0.054,-1.134,0.114,10.656,-10.046,-1.354
-0.054,-1.129,0.114,10.377,-10.145,-1.545
-0.054,-1.125,0.115,10.101,-10.296,-1.722
-0.054,-1.120,0.115,9.818,-10.495,-1.898
-0.054,-1.116,0.116,9.490,-10.740,-2.100
-0.054,-1.112,0.117,9.142,-11.019,-2.331
-0.054,-1.109,0.118,8.743,-11.317,-2.585
-0.054,-1.105,0.119,8.289,-11.609,-2.855
-0.054,-1.102,0.119,7.767,-11.898,-3.162
-0.053,-1.099,0.120,7.196,-12.197,-3.498
-0.053,-1.096,0.120,6.558,-12.492,-3.846
-0.053,-1.093,0.120,5.053,-12.764,-4.210
-0.053,-1.090,0.120,4.208,-12.993,-4.560
-0.052,-1.088,0.120,3.271,-13.122,-4.856
-0.051,-1.085,0.119,2.304,-13.159,-5.125
-0.050,-1.084,0.118,1.383,-13.132,-5.369
-0.049,-1.083,0.117,0.556,-13.066,-5.593
-0.048,-1.082,0.115,-0.180,-13.017,-5.780
-0.048,-1.081,0.113,-0.801,-12.979,-5.909
-0.047,-1.080,0.111,-1.347,-12.967,-5.917
-0.046,-1.078,0.108,-1.865,-12.937,-5.873
-0.045,-1.077,0.106,-2.395,-12.861,-5.796
-0.044,-1.076,0.103,-2.903,-12.779,-5.684
-0.043,-1.076,0.101,-3.265,-12.702,-5.566
-0.043,-1.075,0.099,-3.556,-12.580,-5.455
-0.042,-1.075,0.098,-3.800,-12.430,-5.333
-0.041,-1.074,0.096,-4.007,-12.261,-5.199
-0.040,-1.073,0.095,-4.185,-12.078,-5.038
-0.039,-1.072,0.093,-4.368,-11.899,-4.839
-0.039,-1.071,0.092,-4.578,-11.732,-4.592
-0.038,-1.069,0.091,-4.806,-11.566,-4.325
-0.038,-1.068,0.089,-5.041,-11.359,-4.047
-0.037,-1.066,0.087,-5.288,-11.131,-3.767
-0.037,-1.064,0.086,-5.556,-10.871,-3.470
-0.037,-1.062,0.084,-5.797,-10.588,-3.161
-0.037,-1.060,0.081,-5.992,-10.331,-2.862
-0.037,-1.059,0.080,-6.164,-10.114,-2.602
-0.037,-1.057,0.079,-6.344,-9.904,-2.358
-0.037,-1.055,0.078,-6.536,-9.745,-2.137
-0.036,-1.054,0.077,-6.703,-9.626,-1.956
-0.037,-1.052,0.076,-6.835,-9.519,-1.794
-0.037,-1.051,0.075,-6.968,-9.400,-1.631
-0.036,-1.050,0.074,-7.068,-9.238,-1.462
-0.036,-1.049,0.073,-7.128,-9.070,-1.301
-0.036,-1.048,0.072,-7.160,-8.874,-1.179
-0.036,-1.046,0.071,-7.165,-8.682,-1.097
-0.037,-1.045,0.070,-7.134,-8.541,-1.053
-0.037,-1.044,0.069,-7.057,-8.460,-1.054
-0.037,-1.043,0.067,-6.959,-8.436,-1.117
-0.038,-1.041,0.067,-6.863,-8.373,-1.185
-0.038,-1.040,0.066,-6.790,-8.314,-1.272
-0.038,-1.039,0.065,-6.692,-8.243,-1.393
-0.038,-1.039,0.065,-6.574,-8.151,-1.532

0.301,-1.642,0.394,-36.472,3.596,-56.260
0.345,-1.923,0.400,-35.129,4.972,-28.008
0.333,-1.987,0.447,16.093,2.279,-19.290
0.285,-1.942,0.463,43.998,-0.880,-13.978
0.267,-1.855,0.449,55.081,-1.358,-12.556
0.253,-1.769,0.434,54.071,0.058,-12.951
0.237,-1.710,0.441,22.584,0.681,-20.419
0.226,-1.694,0.434,-16.400,1.157,-39.616
0.215,-1.678,0.424,-50.424,0.681,-65.887
0.197,-1.670,0.406,-74.817,-0.591,-93.539
0.176,-1.677,0.409,-92.054,-0.165,-87.129
0.207,-1.745,0.374,-90.678,-0.319,-57.241
0.220,-1.789,0.364,-79.472,3.520,-44.731
0.209,-1.773,0.341,-56.458,5.692,-39.912
0.189,-1.727,0.325,-33.968,6.965,-36.560
0.176,-1.680,0.313,-24.944,7.853,-30.851
0.167,-1.640,0.303,-22.543,8.646,-24.154
0.150,-1.602,0.291,-22.240,8.491,-17.601
0.135,-1.572,0.283,-22.749,7.552,-12.697
0.124,-1.552,0.277,-22.600,6.229,-10.717
0.123,-1.541,0.274,-21.396,5.441,-9.884
0.126,-1.530,0.272,-18.456,5.299,-9.278
0.126,-1.516,0.269,-13.636,5.214,-8.667
0.123,-1.498,0.266,-7.307,5.189,-8.130
0.117,-1.475,0.264,-1.337,5.286,-7.922
0.109,-1.448,0.264,3.091,5.546,-7.804
0.101,-1.420,0.261,5.939,5.664,-7.741
0.094,-1.394,0.259,7.443,5.572,-7.403
0.087,-1.373,0.255,8.001,5.227,-6.956
0.081,-1.355,0.252,8.138,4.603,-6.428
0.075,-1.339,0.248,8.051,3.641,-5.993
0.068,-1.324,0.244,7.869,1.916,-5.716
0.062,-1.309,0.240,7.518,-0.326,-5.534
0.058,-1.295,0.238,6.988,-2.509,-5.487
0.056,-1.282,0.235,6.098,-3.885,-5.572
0.055,-1.270,0.234,4.817,-4.233,-5.797
0.053,-1.258,0.231,3.364,-4.255,-6.266
0.051,-1.248,0.228,1.842,-4.202,-7.031
0.047,-1.238,0.225,0.161,-4.213,-8.174
0.044,-1.230,0.221,-1.686,-4.363,-9.506
0.041,-1.222,0.217,-3.664,-4.727,-10.974
0.039,-1.215,0.213,-5.665,-5.184,-12.519
0.038,-1.208,0.209,-7.654,-5.617,-14.089
0.037,-1.203,0.204,-9.586,-5.942,-15.609
0.036,-1.198,0.200,-11.473,-6.078,-17.078
0.035,-1.193,0.194,-13.364,-6.252,-17.694
0.033,-1.193,0.186,-14.555,-6.621,-16.999
0.034,-1.195,0.181,-15.390,-6.887,-16.439
0.031,-1.192,0.175,-15.811,-7.150,-16.223
0.030,-1.187,0.170,-16.064,-7.532,-16.049
0.029,-1.183,0.165,-16.294,-7.748,-15.779
0.029,-1.180,0.162,-16.726,-7.707,-15.479
0.027,-1.177,0.156,-17.053,-7.659,-15.141
0.025,-1.174,0.151,-17.084,-7.703,-14.781
0.024,-1.172,0.146,-16.826,-7.771,-14.442
0.023,-1.169,0.143,-16.451,-7.747,-14.195
0.022,-1.165,0.139,-15.992,-7.665,-14.008
0.020,-1.162,0.136,-15.444,-7.542,-13.871
0.019,-1.159,0.134,-14.840,-7.405,-13.736
0.017,-1.155,0.131,-14.161,-7.268,-13.590
0.016,-1.152,0.129,-13.417,-7.119,-13.443
0.014,-1.149,0.127,-12.578,-6.923,-13.216
0.014,-1.146,0.125,-11.685,-6.671,-12.883
0.013,-1.142,0.124,-10.809,-6.442,-12.466
0.011,-1.138,0.123,-9.972,-6.246,-11.990
0.010,-1.134,0.122,-9.267,-6.061,-11.558
0.009,-1.130,0.122,-8.669,-5.919,-11.169
0.007,-1.127,0.121,-8.143,-5.838,-10.854
0.006,-1.123,0.120,-7.677,-5.823,-10.610
0.005,-1.119,0.120,-7.252,-5.839,-10.370
0.004,-1.116,0.119,-6.877,-5.871,-10.100
0.004,-1.112,0.118,-6.533,-5.906,-9.809
0.004,-1.109,0.117,-6.259,-5.959,-9.524
0.003,-1.106,0.117,-6.035,-6.010,-9.305
0.002,-1.102,0.116,-5.831,-6.054,-9.155
0.002,-1.099,0.115,-5.646,-6.095,-9.039
0.002,-1.095,0.113,-5.459,-6.132,-8.908
0.002,-1.091,0.112,-5.271,-6.162,-8.772
0.001,-1.087,0.111,-5.113,-6.171,-8.633
0.001,-1.083,0.110,-4.997,-6.180,-8.518
0.001,-1.081,0.109,-4.913,-6.170,-8.419
0.002,-1.079,0.107,-4.839,-6.157,-8.351
0.003,-1.078,0.106,-4.758,-6.165,-8.367
0.003,-1.077,0.104,-4.681,-6.157,-8.422
0.004,-1.076,0.103,-4.620,-6.127,-8.429
0.006,-1.075,0.101,-4.577,-6.099,-8.345
0.007,-1.074,0.099,-4.519,-6.081,-8.163
0.007,-1.074,0.098,-4.439,-6.070,-7.969
0.008,-1.073,0.097,-4.344,-6.042,-7.787
0.008,-1.071,0.096,-4.236,-5.933,-7.585
0.009,-1.070,0.095,-4.135,-5.776,-7.362
0.009,-1.068,0.094,-4.004,-5.635,-7.116
0.010,-1.067,0.093,-3.839,-5.554,-6.871
0.010,-1.067,0.092,-3.652,-5.508,-6.645
0.010,-1.067,0.091,-3.451,-5.491,-6.429
0.010,-1.066,0.090,-3.235,-5.483,-6.220
0.011,-1.065,0.090,-3.032,-5.471,-6.022
0.011,-1.064,0.090,-2.844,-5.455,-5.839
0.010,-1.063,0.089,-2.671,-5.439,-5.668
0.010,-1.062,0.089,-2.528,-5.421,-5.490
0.010,-1.061,0.089,-2.414,-5.403,-5.302
0.010,-1.059,0.089,-2.353,-5.386,-5.093
0.010,-1.058,0.090,-2.348,-5.383,-4.872
0.010,-1.057,0.090,-2.373,-5.394,-4.635
0.011,-1.056,0.090,-2.436,-5.397,-4.373
0.011,-1.056,0.090,-2.516,-5.400,-4.103
0.011,-1.056,0.090,-2.606,-5.386,-3.834
0.011,-1.056,0.090,-2.706,-5.333,-3.562
0.012,-1.056,0.089,-2.806,-5.272,-3.278
0.012,-1.055,0.089,-2.897,-5.203,-2.981
0.012,-1.054,0.089,-3.012,-5.139,-2.671
0.011,-1.053,0.089,-3.132,-5.097,-2.341
0.010,-1.051,0.089,-3.209,-5.077,-1.999
0.009,-1.049,0.089,-3.289,-5.072,-1.686
0.009,-1.047,0.088,-3.407,-5.043,-1.440
0.008,-1.046,0.088,-3.576,-5.028,-1.226
0.008,-1.045,0.087,-3.771,-5.039,-1.057
0.008,-1.044,0.086,-3.982,-5.073,-0.959
0.008,-1.043,0.086,-4.185,-5.154,-0.900

0.277,-1.513,0.470,-33.289,-11.635,-145.802
0.284,-1.568,0.521,-65.290,-10.233,-159.273
0.337,-1.674,0.499,-62.696,-9.171,-166.245
0.279,-1.697,0.499,-61.515,-9.328,-162.924
0.248,-1.673,0.477,-59.493,-6.291,-158.478
0.225,-1.625,0.456,-54.120,4.399,-154.192
0.225,-1.607,0.445,-53.164,7.247,-146.738
0.213,-1.606,0.439,-55.303,9.409,-142.739
0.210,-1.607,0.428,-62.450,10.109,-139.188
0.208,-1.618,0.415,-70.445,9.602,-135.731
0.204,-1.651,0.404,-72.808,8.756,-130.532
0.215,-1.681,0.386,-70.119,8.544,-123.097
0.201,-1.690,0.366,-61.004,8.868,-114.803
0.182,-1.675,0.347,-51.595,9.221,-107.301
0.170,-1.657,0.325,-45.037,10.539,-98.754
0.159,-1.630,0.306,-40.365,12.357,-91.901
0.150,-1.606,0.291,-36.796,14.077,-85.984
0.141,-1.586,0.280,-33.823,15.437,-80.450
0.139,-1.569,0.267,-30.880,16.244,-73.178
0.135,-1.558,0.261,-27.309,16.483,-68.818
0.130,-1.539,0.258,-23.315,17.003,-65.201
0.125,-1.520,0.254,-19.957,17.244,-60.683
0.114,-1.501,0.250,-15.735,16.853,-55.437
0.103,-1.484,0.246,-10.192,15.868,-51.236
0.094,-1.465,0.244,-4.259,14.765,-48.245
0.089,-1.442,0.240,0.659,14.025,-45.742
0.082,-1.419,0.237,3.696,13.526,-43.607
0.077,-1.396,0.234,4.936,13.069,-41.557
0.071,-1.374,0.231,5.654,12.462,-39.716
0.065,-1.356,0.227,6.225,11.698,-38.125
0.059,-1.339,0.224,6.688,10.878,-36.640
0.053,-1.323,0.221,6.973,9.896,-35.257
0.048,-1.306,0.218,6.984,8.727,-34.020
0.042,-1.290,0.215,6.771,7.480,-32.895
0.038,-1.276,0.211,6.274,6.329,-31.949
0.036,-1.262,0.207,5.481,5.490,-31.225
0.034,-1.250,0.203,4.379,4.834,-30.598
0.033,-1.239,0.200,2.838,4.251,-29.954
0.032,-1.227,0.197,0.657,3.863,-29.372
0.028,-1.217,0.193,-1.590,3.442,-28.885
0.025,-1.208,0.187,-3.676,3.051,-28.469
0.023,-1.201,0.181,-5.405,2.626,-28.107
0.021,-1.195,0.174,-6.848,2.242,-27.762
0.020,-1.189,0.168,-8.015,1.897,-27.389
0.019,-1.184,0.162,-8.993,1.566,-26.994
0.017,-1.180,0.156,-9.700,1.250,-26.601
0.014,-1.177,0.150,-10.101,1.000,-26.285
0.012,-1.173,0.145,-10.369,0.779,-26.013
0.010,-1.169,0.141,-10.619,0.557,-25.692
0.009,-1.167,0.137,-10.807,0.307,-25.357
0.007,-1.165,0.134,-10.871,0.059,-25.036
0.006,-1.164,0.130,-10.785,-0.193,-24.633
0.004,-1.162,0.126,-10.613,-0.440,-24.197
0.001,-1.160,0.121,-10.332,-0.602,-23.779
-0.001,-1.157,0.116,-9.950,-0.742,-23.369
-0.003,-1.154,0.111,-9.457,-0.874,-22.954
-0.006,-1.150,0.112,-8.983,-0.997,-22.509
-0.008,-1.146,0.110,-8.638,-1.101,-22.008
-0.010,-1.142,0.108,-8.324,-1.143,-21.464
-0.013,-1.139,0.107,-8.027,-1.167,-20.915
-0.016,-1.135,0.105,-7.747,-1.191,-20.300
-0.018,-1.132,0.105,-7.461,-1.234,-19.654
-0.020,-1.128,0.107,-7.340,-1.267,-18.942
-0.022,-1.125,0.107,-7.192,-1.282,-18.232
-0.025,-1.123,0.106,-7.012,-1.334,-17.582
-0.028,-1.120,0.103,-6.731,-1.375,-16.985
-0.030,-1.117,0.101,-6.385,-1.421,-16.417
-0.032,-1.113,0.099,-5.994,-1.444,-15.864
-0.034,-1.109,0.097,-5.667,-1.474,-15.322
-0.036,-1.106,0.096,-5.438,-1.502,-14.784
-0.038,-1.102,0.095,-5.286,-1.519,-14.291
-0.040,-1.098,0.095,-5.171,-1.564,-13.791
-0.042,-1.095,0.094,-5.064,-1.610,-13.330
-0.044,-1.093,0.094,-4.941,-1.670,-12.910
-0.045,-1.090,0.096,-4.800,-1.784,-12.527
-0.046,-1.088,0.097,-4.747,-1.913,-12.118
-0.047,-1.087,0.095,-4.615,-2.031,-11.752
-0.048,-1.086,0.093,-4.351,-2.128,-11.482
-0.050,-1.084,0.090,-4.016,-2.204,-11.265
-0.051,-1.081,0.088,-3.666,-2.259,-11.066
-0.052,-1.077,0.086,-3.381,-2.290,-10.862
-0.053,-1.074,0.084,-3.185,-2.305,-10.632
-0.053,-1.071,0.082,-3.107,-2.321,-10.401
-0.054,-1.067,0.080,-3.076,-2.314,-10.188
-0.054,-1.064,0.080,-3.172,-2.348,-9.971
-0.054,-1.061,0.079,-3.554,-2.376,-9.698
-0.054,-1.059,0.080,-4.045,-2.418,-9.399
-0.054,-1.057,0.079,-4.474,-2.498,-9.086
-0.054,-1.056,0.080,-4.852,-2.608,-8.747
-0.054,-1.056,0.080,-5.281,-2.707,-8.393
-0.054,-1.055,0.079,-5.627,-2.758,-8.142
-0.055,-1.055,0.077,-5.900,-2.750,-7.976
-0.056,-1.054,0.074,-6.034,-2.697,-7.873
-0.056,-1.053,0.072,-6.089,-2.641,-7.761
-0.057,-1.052,0.070,-6.108,-2.578,-7.621
-0.057,-1.051,0.068,-6.094,-2.525,-7.471
-0.058,-1.050,0.066,-6.077,-2.497,-7.311
-0.059,-1.049,0.065,-6.027,-2.518,-7.164
-0.061,-1.048,0.064,-5.937,-2.554,-7.034
-0.061,-1.048,0.062,-5.775,-2.604,-6.943
-0.062,-1.047,0.060,-5.582,-2.659,-6.871
-0.063,-1.046,0.059,-5.396,-2.749,-6.768
-0.064,-1.045,0.058,-5.239,-2.849,-6.636
-0.065,-1.043,0.057,-5.168,-2.946,-6.473
-0.066,-1.042,0.054,-5.179,-3.064,-6.282
-0.067,-1.041,0.052,-5.232,-3.204,-6.112
-0.068,-1.042,0.049,-5.420,-3.307,-6.032
-0.069,-1.043,0.046,-5.800,-3.332,-6.050
-0.070,-1.045,0.041,-6.390,-3.261,-6.212
-0.072,-1.044,0.038,-6.698,-3.194,-6.466
-0.074,-1.039,0.038,-6.158,-3.365,-6.535
-0.077,-1.034,0.042,-5.295,-3.941,-6.472
-0.078,-1.027,0.049,-4.711,-4.463,-6.343
-0.078,-1.022,0.055,-4.922,-4.697,-6.243
-0.076,-1.020,0.060,-5.272,-4.949,-6.102
-0.076,-1.024,0.066,-5.595,-5.476,-5.965
-0.076,-1.027,0.070,-5.848,-6.061,-5.843
-0.076,-1.031,0.074,-6.170,-6.578,-5.829
-0.075,-1.037,0.071,-6.548,-6.943,-6.006

0.059,-1.865,0.323,-12.782,-6.911,-151.997
0.056,-1.920,0.378,-29.890,-3.124,-147.742
0.138,-2.043,0.402,-29.008,-7.738,-148.388
0.111,-2.024,0.426,-25.526,-13.177,-144.817
0.098,-1.971,0.407,-20.090,-12.734,-141.343
0.084,-1.918,0.411,-20.355,-9.454,-143.081
0.066,-1.895,0.403,-30.935,-6.586,-148.877
0.037,-1.888,0.413,-50.704,-3.723,-149.042
0.054,-1.907,0.400,-67.133,0.118,-145.307
0.058,-1.912,0.390,-76.634,3.404,-140.352
0.058,-1.931,0.372,-78.953,6.350,-130.385
0.058,-1.960,0.351,-76.545,6.163,-124.597
0.062,-1.985,0.336,-65.076,5.255,-120.946
0.065,-1.986,0.328,-47.322,5.202,-117.965
0.064,-1.956,0.327,-33.814,6.400,-115.048
0.057,-1.912,0.319,-27.615,7.283,-112.158
0.050,-1.869,0.313,-24.881,8.083,-108.200
0.050,-1.828,0.306,-23.811,7.828,-102.329
0.049,-1.790,0.305,-23.979,7.171,-95.792
0.043,-1.760,0.301,-24.068,5.583,-90.055
0.047,-1.735,0.302,-23.795,4.101,-84.486
0.051,-1.717,0.302,-22.577,2.610,-78.493
0.047,-1.698,0.302,-19.206,1.270,-73.540
0.041,-1.670,0.301,-15.046,0.268,-70.648
0.035,-1.636,0.299,-11.324,-0.574,-68.998
0.031,-1.599,0.296,-9.048,-1.161,-67.519
0.028,-1.562,0.293,-8.174,-1.499,-66.042
0.024,-1.530,0.289,-8.284,-1.647,-64.673
0.020,-1.503,0.283,-8.831,-1.745,-63.519
0.016,-1.478,0.277,-9.640,-1.961,-62.622
0.014,-1.459,0.271,-10.642,-2.284,-61.890
0.013,-1.440,0.265,-11.752,-2.683,-61.180
0.012,-1.422,0.258,-12.786,-3.209,-60.439
0.011,-1.405,0.251,-13.663,-3.824,-59.714
0.010,-1.390,0.243,-14.327,-4.450,-59.016
0.010,-1.376,0.234,-14.881,-4.955,-58.306
0.011,-1.363,0.226,-15.349,-5.231,-57.585
0.012,-1.352,0.217,-15.749,-5.375,-56.842
0.015,-1.342,0.208,-15.992,-5.434,-56.022
0.017,-1.334,0.199,-16.068,-5.460,-55.140
0.020,-1.326,0.191,-16.058,-5.478,-54.161
0.022,-1.319,0.182,-15.958,-5.579,-53.071
0.023,-1.314,0.174,-15.770,-5.635,-51.921
0.025,-1.307,0.167,-15.527,-5.620,-50.759
0.028,-1.301,0.159,-15.268,-5.474,-49.489
0.031,-1.295,0.153,-14.999,-5.234,-48.087
0.034,-1.290,0.148,-14.731,-4.927,-46.579
0.037,-1.285,0.143,-14.433,-4.590,-45.052
0.038,-1.279,0.140,-14.092,-4.237,-43.538
0.039,-1.273,0.137,-13.697,-3.891,-42.018
0.040,-1.267,0.135,-13.233,-3.514,-40.502
0.040,-1.262,0.133,-12.758,-3.090,-38.999
0.040,-1.255,0.132,-12.266,-2.654,-37.543
0.040,-1.248,0.131,-11.809,-2.270,-36.025
0.040,-1.240,0.130,-11.383,-1.898,-34.513
0.039,-1.234,0.129,-10.964,-1.579,-33.058
0.039,-1.228,0.128,-10.531,-1.232,-31.741
0.039,-1.222,0.127,-10.034,-0.926,-30.477
0.039,-1.217,0.127,-9.537,-0.650,-29.369
0.039,-1.211,0.127,-9.057,-0.420,-28.330
0.039,-1.204,0.127,-8.552,-0.193,-27.404
0.038,-1.198,0.127,-8.011,0.017,-26.560
0.037,-1.192,0.126,-7.452,0.210,-25.758
0.036,-1.187,0.126,-6.931,0.419,-24.991
0.036,-1.181,0.125,-6.469,0.602,-24.155
0.036,-1.175,0.125,-6.149,0.756,-23.236
0.035,-1.168,0.125,-5.911,0.887,-22.297
0.035,-1.162,0.124,-5.735,1.073,-21.409
0.034,-1.157,0.124,-5.598,1.235,-20.552
0.034,-1.152,0.122,-5.366,1.313,-19.552
0.035,-1.148,0.122,-5.185,1.581,-18.625
0.035,-1.143,0.121,-5.042,1.790,-17.759
0.035,-1.139,0.119,-4.913,1.950,-16.939
0.035,-1.134,0.118,-4.831,2.106,-16.207
0.035,-1.130,0.116,-4.788,2.259,-15.470
0.036,-1.126,0.113,-4.760,2.412,-14.766
0.036,-1.121,0.111,-4.738,2.529,-14.096
0.036,-1.117,0.109,-4.717,2.586,-13.466
0.036,-1.113,0.108,-4.684,2.569,-12.909
0.037,-1.110,0.106,-4.652,2.510,-12.509
0.038,-1.106,0.104,-4.586,2.450,-12.215
0.038,-1.103,0.102,-4.459,2.382,-11.982
0.039,-1.099,0.100,-4.272,2.286,-11.739
0.040,-1.097,0.098,-4.077,2.165,-11.483
0.041,-1.094,0.096,-3.907,2.033,-11.231
0.041,-1.092,0.095,-3.773,1.915,-10.983
0.042,-1.089,0.093,-3.675,1.819,-10.738
0.042,-1.087,0.092,-3.611,1.730,-10.498
0.042,-1.085,0.090,-3.557,1.640,-10.241
0.042,-1.083,0.089,-3.480,1.547,-9.953
0.043,-1.082,0.088,-3.329,1.442,-9.623
0.043,-1.081,0.087,-3.034,1.325,-9.271
0.043,-1.079,0.087,-2.642,1.226,-8.952
0.043,-1.077,0.086,-2.215,1.136,-8.682
0.043,-1.075,0.086,-1.826,1.043,-8.451
0.042,-1.073,0.086,-1.474,0.945,-8.245
0.042,-1.072,0.086,-1.147,0.842,-8.026
0.042,-1.071,0.087,-0.835,0.723,-7.799
0.042,-1.070,0.087,-0.560,0.635,-7.628
0.042,-1.069,0.088,-0.351,0.506,-7.418
0.042,-1.069,0.088,-0.160,0.393,-7.167
0.041,-1.068,0.089,-0.003,0.280,-6.860
0.041,-1.068,0.089,0.115,0.183,-6.531
0.040,-1.067,0.090,0.212,0.093,-6.209
0.039,-1.065,0.091,0.287,-0.024,-5.873
0.037,-1.064,0.092,0.355,-0.151,-5.541
0.036,-1.063,0.093,0.400,-0.256,-5.245
0.035,-1.062,0.093,0.437,-0.328,-5.043
0.034,-1.060,0.094,0.449,-0.365,-4.879
0.033,-1.058,0.094,0.426,-0.380,-4.684
0.033,-1.056,0.094,0.348,-0.394,-4.421
0.033,-1.055,0.094,0.189,-0.400,-4.083
0.032,-1.053,0.094,-0.021,-0.404,-3.713
0.032,-1.051,0.095,-0.284,-0.423,-3.354
0.032,-1.049,0.096,-0.598,-0.469,-3.052
0.031,-1.048,0.097,-1.001,-0.528,-2.838
0.031,-1.047,0.098,-1.458,-0.620,-2.679
0.031,-1.046,0.099,-1.927,-0.757,-2.536
0.030,-1.046,0.100,-2.352,-0.945,-2.462

0.563,-1.404,0.242,-2.595,-13.006,-17.229
0.610,-1.614,0.165,-1.872,-41.223,-49.897
0.641,-1.739,0.263,-3.264,-42.746,-65.985
0.608,-1.718,0.240,-5.873,-41.808,-66.506
0.588,-1.675,0.216,-8.534,-38.246,-66.898
0.565,-1.645,0.188,-9.527,-27.770,-74.111
0.516,-1.608,0.185,-13.646,-17.723,-78.743
0.503,-1.605,0.173,-26.976,-12.557,-77.477
0.493,-1.617,0.169,-42.259,-9.094,-75.416
0.488,-1.640,0.157,-51.495,-7.129,-68.593
0.474,-1.674,0.147,-53.700,-6.020,-63.156
0.478,-1.710,0.134,-49.846,-5.020,-58.576
0.474,-1.720,0.119,-38.156,-4.599,-54.961
0.459,-1.709,0.112,-22.829,-4.344,-52.132
0.440,-1.684,0.108,-12.259,-4.039,-49.801
0.425,-1.656,0.101,-6.012,-3.119,-46.845
0.407,-1.626,0.095,-2.119,-1.870,-43.271
0.391,-1.596,0.088,0.254,-0.647,-39.646
0.374,-1.570,0.083,1.845,-0.449,-36.868
0.360,-1.545,0.074,2.948,-0.852,-31.992
0.360,-1.527,0.081,3.865,-0.802,-24.420
0.349,-1.516,0.086,4.538,-0.847,-16.914
0.328,-1.495,0.084,6.567,-1.307,-14.114
0.325,-1.470,0.084,9.696,-2.722,-10.414
0.311,-1.450,0.094,12.700,-4.480,-6.727
0.294,-1.430,0.099,15.291,-6.086,-4.848
0.278,-1.406,0.101,17.599,-7.184,-3.541
0.266,-1.382,0.102,19.571,-8.126,-3.263
0.258,-1.358,0.106,20.726,-8.321,-3.343
0.252,-1.337,0.110,20.959,-7.939,-3.576
0.247,-1.320,0.110,20.563,-7.028,-3.702
0.241,-1.305,0.109,20.002,-6.142,-3.936
0.232,-1.291,0.106,19.327,-5.648,-4.250
0.223,-1.278,0.104,18.450,-5.377,-4.609
0.214,-1.265,0.102,17.187,-5.054,-5.131
0.206,-1.252,0.101,15.152,-4.633,-5.812
0.200,-1.241,0.098,12.738,-4.190,-6.578
0.194,-1.233,0.094,10.303,-3.989,-7.288
0.189,-1.227,0.091,8.139,-3.991,-7.805
0.184,-1.222,0.087,6.290,-4.086,-8.197
0.179,-1.218,0.082,4.741,-4.132,-8.563
0.176,-1.214,0.077,3.460,-4.100,-8.892
0.174,-1.209,0.072,2.496,-4.005,-9.151
0.171,-1.205,0.067,1.658,-3.925,-9.303
0.168,-1.201,0.061,0.998,-3.896,-9.347
0.165,-1.197,0.056,0.510,-3.979,-9.322
0.161,-1.192,0.051,0.178,-4.148,-9.237
0.158,-1.188,0.046,0.017,-4.390,-9.092
0.154,-1.184,0.041,-0.049,-4.527,-8.942
0.150,-1.179,0.038,-0.050,-4.511,-8.808
0.147,-1.174,0.034,-0.001,-4.396,-8.716
0.144,-1.169,0.031,0.127,-4.238,-8.639
0.141,-1.164,0.029,0.349,-4.096,-8.542
0.138,-1.160,0.028,0.652,-3.968,-8.385
0.135,-1.156,0.027,1.073,-3.809,-8.170
0.131,-1.150,0.028,1.600,-3.653,-7.936
0.127,-1.144,0.029,2.092,-3.459,-7.725
0.123,-1.139,0.031,2.455,-3.250,-7.576
0.120,-1.134,0.032,2.699,-3.030,-7.421
0.116,-1.130,0.033,2.805,-2.800,-7.226
0.113,-1.126,0.034,2.848,-2.607,-6.959
0.110,-1.122,0.035,2.860,-2.422,-6.646
0.107,-1.119,0.036,2.839,-2.240,-6.358
0.103,-1.115,0.038,2.758,-2.042,-6.144
0.099,-1.111,0.039,2.538,-1.849,-5.913
0.096,-1.107,0.040,2.209,-1.666,-5.729
0.092,-1.104,0.042,1.756,-1.559,-5.555
0.089,-1.101,0.044,1.257,-1.464,-5.440
0.085,-1.099,0.045,0.742,-1.382,-5.371
0.082,-1.098,0.046,0.294,-1.318,-5.254
0.080,-1.096,0.046,-0.075,-1.292,-5.109
0.077,-1.095,0.047,-0.389,-1.293,-4.969
0.074,-1.094,0.046,-0.658,-1.320,-4.856
0.072,-1.094,0.046,-0.910,-1.358,-4.740
0.069,-1.093,0.045,-1.115,-1.394,-4.596
0.068,-1.093,0.044,-1.261,-1.439,-4.414
0.066,-1.091,0.044,-1.308,-1.499,-4.189
0.064,-1.090,0.043,-1.301,-1.566,-3.945
0.062,-1.089,0.042,-1.227,-1.637,-3.690
0.060,-1.088,0.042,-1.075,-1.712,-3.470
0.058,-1.086,0.041,-0.879,-1.772,-3.305
0.056,-1.084,0.041,-0.669,-1.829,-3.182
0.054,-1.082,0.041,-0.438,-1.889,-3.080
0.053,-1.079,0.041,-0.217,-1.959,-2.979
0.051,-1.077,0.041,0.001,-2.039,-2.888
0.050,-1.075,0.040,0.231,-2.107,-2.810
0.049,-1.073,0.040,0.474,-2.175,-2.728
0.048,-1.070,0.040,0.683,-2.230,-2.609
0.047,-1.067,0.040,0.834,-2.280,-2.482
0.046,-1.064,0.039,0.951,-2.322,-2.368
0.046,-1.062,0.039,1.043,-2.346,-2.252
0.045,-1.060,0.038,1.122,-2.365,-2.117
0.044,-1.058,0.037,1.185,-2.396,-1.968
0.043,-1.056,0.036,1.227,-2.429,-1.828
0.042,-1.054,0.036,1.239,-2.451,-1.705
0.041,-1.052,0.035,1.230,-2.464,-1.600
0.040,-1.050,0.035,1.200,-2.471,-1.506
0.039,-1.049,0.034,1.161,-2.467,-1.432
0.039,-1.048,0.034,1.118,-2.444,-1.377
0.038,-1.046,0.033,1.079,-2.417,-1.348
0.037,-1.044,0.033,1.022,-2.390,-1.336
0.036,-1.043,0.032,0.926,-2.362,-1.312
0.036,-1.042,0.032,0.825,-2.362,-1.261
0.036,-1.041,0.033,0.727,-2.386,-1.209
0.035,-1.040,0.033,0.608,-2.427,-1.180
0.033,-1.039,0.034,0.465,-2.485,-1.194
0.032,-1.039,0.034,0.320,-2.574,-1.197
0.031,-1.039,0.035,0.199,-2.708,-1.174
0.031,-1.040,0.035,0.077,-2.906,-1.131
0.030,-1.040,0.036,-0.048,-3.140,-1.072
0.029,-1.041,0.037,-0.178,-3.404,-1.033
0.029,-1.041,0.038,-0.273,-3.700,-1.020
0.028,-1.042,0.039,-0.360,-3.985,-0.979
0.028,-1.041,0.039,-0.460,-4.256,-0.934
0.027,-1.041,0.040,-0.581,-4.529,-0.910
0.026,-1.041,0.040,-0.704,-4.798,-0.908
0.025,-1.041,0.040,-0.853,-5.067,-0.912
0.025,-1.042,0.040,-1.037,-5.337,-0.929
0.025,-1.043,0.040,-1.259,-5.613,-0.965

0.383,-1.391,0.445,-28.632,-40.374,-4.585
0.431,-1.569,0.408,-28.423,-31.541,-18.879
0.430,-1.625,0.427,-26.237,-30.793,-34.576
0.419,-1.600,0.383,-24.952,-29.946,-39.908
0.398,-1.564,0.334,-26.055,-25.772,-45.688
0.370,-1.523,0.308,-31.464,-14.515,-51.410
0.347,-1.533,0.305,-53.341,-13.118,-51.365
0.338,-1.576,0.308,-79.318,-13.337,-50.282
0.330,-1.607,0.296,-95.958,-14.998,-46.938
0.349,-1.660,0.277,-99.287,-16.691,-38.246
0.351,-1.689,0.258,-97.892,-17.248,-34.802
0.352,-1.696,0.234,-94.227,-17.392,-31.628
0.344,-1.688,0.215,-88.067,-17.215,-28.628
0.336,-1.676,0.198,-80.083,-16.904,-25.366
0.325,-1.663,0.183,-70.106,-16.880,-21.744
0.313,-1.649,0.174,-60.066,-16.575,-17.816
0.299,-1.631,0.168,-51.738,-15.777,-13.320
0.285,-1.607,0.160,-43.706,-14.184,-8.223
0.270,-1.579,0.152,-36.444,-13.480,-3.458
0.269,-1.555,0.145,-28.764,-14.339,2.922
0.268,-1.538,0.137,-19.321,-14.872,5.082
0.261,-1.510,0.144,-12.379,-14.444,9.247
0.261,-1.487,0.142,-6.864,-14.130,14.928
0.242,-1.463,0.144,-2.576,-14.622,17.504
0.217,-1.432,0.143,0.890,-15.791,18.763
0.197,-1.401,0.142,3.170,-16.970,19.046
0.187,-1.373,0.143,4.547,-17.824,18.642
0.179,-1.347,0.147,5.055,-18.211,18.003
0.174,-1.323,0.145,5.242,-17.915,17.206
0.173,-1.304,0.145,5.108,-16.826,16.777
0.170,-1.287,0.144,4.870,-15.584,16.378
0.163,-1.271,0.141,4.654,-14.605,15.717
0.154,-1.253,0.137,4.409,-13.879,14.558
0.145,-1.237,0.135,3.934,-13.188,12.884
0.138,-1.223,0.131,2.998,-12.573,11.065
0.132,-1.211,0.127,1.803,-12.057,9.286
0.127,-1.201,0.122,0.551,-11.814,7.555
0.123,-1.192,0.117,-0.673,-11.604,6.151
0.119,-1.185,0.113,-1.986,-11.472,4.773
0.114,-1.178,0.107,-3.409,-11.377,3.427
0.108,-1.173,0.101,-4.812,-11.460,2.211
0.104,-1.168,0.095,-6.136,-11.624,1.159
0.101,-1.164,0.089,-7.487,-11.810,0.415
0.098,-1.160,0.084,-8.835,-11.944,-0.166
0.096,-1.157,0.077,-10.182,-11.994,-0.665
0.093,-1.155,0.070,-11.423,-12.033,-1.161
0.090,-1.153,0.064,-12.423,-12.075,-1.648
0.088,-1.150,0.057,-13.190,-12.092,-2.110
0.086,-1.149,0.052,-13.666,-12.056,-2.503
0.084,-1.147,0.047,-13.773,-11.940,-2.825
0.082,-1.146,0.042,-13.639,-11.780,-3.160
0.079,-1.145,0.038,-13.331,-11.627,-3.494
0.076,-1.144,0.034,-12.832,-11.465,-3.797
0.073,-1.142,0.030,-12.220,-11.276,-4.058
0.070,-1.140,0.027,-11.526,-11.035,-4.275
0.067,-1.138,0.024,-10.777,-10.770,-4.443
0.065,-1.136,0.021,-9.954,-10.475,-4.553
0.062,-1.134,0.019,-9.115,-10.142,-4.626
0.060,-1.132,0.017,-8.286,-9.750,-4.679
0.057,-1.129,0.016,-7.490,-9.331,-4.699
0.055,-1.126,0.015,-6.746,-8.908,-4.651
0.053,-1.124,0.014,-5.984,-8.487,-4.571
0.051,-1.121,0.013,-5.198,-8.081,-3.871
0.048,-1.118,0.013,-4.412,-7.705,-3.741
0.045,-1.115,0.014,-3.637,-7.374,-3.594
0.043,-1.111,0.014,-2.943,-7.098,-3.432
0.040,-1.107,0.015,-2.358,-6.836,-3.265
0.038,-1.104,0.015,-1.861,-6.585,-3.151
0.035,-1.101,0.015,-1.396,-6.367,-3.042
0.033,-1.098,0.015,-0.969,-6.180,-2.912
0.031,-1.096,0.015,-0.556,-6.033,-2.794
0.029,-1.092,0.016,-0.233,-5.893,-2.685
0.027,-1.089,0.016,-0.016,-5.741,-2.608
0.026,-1.086,0.015,0.113,-5.618,-2.538
0.024,-1.083,0.015,0.190,-5.520,-2.469
0.023,-1.080,0.015,0.232,-5.455,-2.428
0.022,-1.077,0.015,0.254,-5.433,-2.404
0.020,-1.074,0.015,0.272,-5.430,-2.400
0.020,-1.071,0.015,0.285,-5.449,-2.388
0.019,-1.068,0.014,0.309,-5.494,-2.362
0.018,-1.066,0.013,0.346,-5.558,-2.327
0.017,-1.063,0.013,0.405,-5.627,-2.299
0.016,-1.061,0.012,0.470,-5.695,-2.295
0.016,-1.059,0.011,0.545,-5.754,-2.303
0.015,-1.056,0.011,0.618,-5.804,-2.316
0.015,-1.054,0.010,0.688,-5.843,-2.323
0.014,-1.052,0.009,0.735,-5.858,-2.315
0.014,-1.050,0.008,0.763,-5.851,-2.326
0.013,-1.048,0.007,0.752,-5.829,-2.367
0.013,-1.046,0.006,0.701,-5.791,-2.402
0.013,-1.044,0.005,0.612,-5.732,-2.423
0.013,-1.042,0.004,0.508,-5.663,-2.433
0.013,-1.041,0.003,0.408,-5.585,-2.434
0.013,-1.040,0.002,0.317,-5.485,-2.436
0.013,-1.038,0.001,0.228,-5.366,-2.449
0.013,-1.037,-0.000,0.154,-5.239,-2.481
0.013,-1.036,-0.001,0.073,-5.112,-2.531
0.013,-1.035,-0.002,-0.025,-4.983,-2.584
0.013,-1.035,-0.003,-0.139,-4.855,-2.634
0.013,-1.034,-0.003,-0.245,-4.738,-2.668
0.013,-1.033,-0.004,-0.363,-4.628,-2.673
0.013,-1.032,-0.004,-0.499,-4.516,-2.689
0.014,-1.032,-0.005,-0.646,-4.386,-2.742
0.014,-1.032,-0.006,-0.794,-4.236,-2.815
0.014,-1.032,-0.007,-0.931,-4.068,-2.880
0.015,-1.032,-0.007,-1.064,-3.921,-2.898
0.016,-1.032,-0.007,-1.184,-3.799,-2.875
0.017,-1.033,-0.007,-1.313,-3.695,-2.821
0.017,-1.034,-0.006,-1.461,-3.627,-2.766
0.017,-1.034,-0.004,-1.641,-3.602,-2.739
0.017,-1.035,-0.003,-1.910,-3.622,-2.726
0.017,-1.036,-0.001,-2.277,-3.687,-2.717
0.017,-1.038,0.001,-2.765,-3.815,-2.669
0.018,-1.040,0.003,-3.364,-3.957,-2.585
0.019,-1.043,0.004,-3.948,-4.118,-2.476
0.019,-1.047,0.006,-4.456,-4.350,-2.319
0.019,-1.051,0.008,-4.909,-4.634,-2.111
0.019,-1.055,0.009,-5.371,-4.954,-1.861
0.019,-1.061,0.010,-5.883,-5.291,-1.583

0.876,-1.322,-0.336,-21.773,-95.234,-4.827
0.876,-1.503,-0.278,-21.909,-70.710,-11.985
0.843,-1.617,-0.311,-4.164,-66.483,-32.596
0.786,-1.645,-0.239,-0.059,-66.810,-49.881
0.745,-1.597,-0.263,-1.950,-67.124,-59.846
0.718,-1.534,-0.385,-8.431,-57.205,-64.130
0.705,-1.535,-0.340,-18.982,-53.550,-78.181
0.668,-1.582,-0.325,-58.645,-56.922,-104.675
0.638,-1.592,-0.317,-81.432,-68.046,-102.139
0.654,-1.676,-0.345,-82.153,-67.259,-93.735
0.653,-1.713,-0.366,-79.315,-65.800,-90.216
0.632,-1.717,-0.372,-69.597,-64.326,-87.845
0.606,-1.692,-0.371,-61.341,-62.966,-84.059
0.581,-1.670,-0.369,-54.367,-61.645,-79.023
0.564,-1.652,-0.368,-46.897,-60.312,-74.757
0.544,-1.635,-0.365,-38.895,-58.990,-71.293
0.526,-1.614,-0.362,-30.862,-57.722,-66.535
0.513,-1.592,-0.355,-23.272,-56.195,-60.574
0.499,-1.571,-0.345,-16.788,-54.180,-55.082
0.483,-1.547,-0.332,-12.106,-51.954,-50.026
0.467,-1.522,-0.320,-8.508,-49.569,-45.642
0.450,-1.498,-0.306,-5.646,-47.355,-42.441
0.434,-1.476,-0.293,-3.391,-45.497,-39.867
0.419,-1.455,-0.282,-1.567,-44.005,-37.544
0.406,-1.435,-0.272,-0.269,-42.652,-35.211
0.395,-1.415,-0.266,0.627,-41.372,-33.091
0.383,-1.394,-0.262,1.127,-40.198,-30.998
0.372,-1.373,-0.260,1.240,-39.096,-29.001
0.361,-1.355,-0.257,0.880,-38.097,-27.301
0.352,-1.339,-0.255,0.273,-37.219,-25.839
0.344,-1.325,-0.254,-0.377,-36.351,-24.633
0.337,-1.313,-0.252,-1.042,-35.342,-23.760
0.330,-1.302,-0.251,-1.673,-34.160,-23.091
0.322,-1.290,-0.251,-2.260,-32.759,-22.556
0.315,-1.278,-0.251,-2.934,-31.442,-22.178
0.308,-1.266,-0.251,-3.696,-30.324,-21.911
0.301,-1.256,-0.251,-4.500,-29.444,-21.711
0.294,-1.247,-0.251,-5.208,-28.742,-21.540
0.288,-1.238,-0.251,-5.715,-28.196,-21.386
0.281,-1.230,-0.251,-6.088,-27.887,-21.230
0.275,-1.222,-0.250,-6.320,-27.778,-21.037
0.270,-1.216,-0.249,-6.363,-27.736,-20.790
0.265,-1.209,-0.249,-6.323,-27.688,-20.494
0.260,-1.202,-0.247,-6.235,-27.562,-20.143
0.254,-1.196,-0.246,-6.113,-27.392,-19.671
0.247,-1.190,-0.244,-6.021,-27.170,-19.201
0.241,-1.185,-0.242,-5.884,-26.875,-18.750
0.235,-1.180,-0.241,-5.712,-26.497,-18.277
0.230,-1.175,-0.240,-5.538,-26.031,-17.813
0.224,-1.170,-0.239,-5.362,-25.450,-17.370
0.218,-1.165,-0.238,-5.178,-24.768,-16.950
0.213,-1.159,-0.236,-5.034,-24.010,-16.504
0.207,-1.154,-0.233,-4.930,-23.172,-16.026
0.202,-1.149,-0.230,-4.866,-22.324,-15.475
0.196,-1.144,-0.228,-4.799,-21.482,-14.900
0.190,-1.140,-0.225,-4.722,-20.656,-14.345
0.184,-1.136,-0.223,-4.649,-19.855,-13.779
0.178,-1.132,-0.220,-4.559,-19.075,-13.236
0.173,-1.128,-0.218,-4.448,-18.336,-12.726
0.167,-1.124,-0.216,-4.321,-17.652,-12.236
0.162,-1.120,-0.213,-4.193,-17.004,-11.782
0.157,-1.117,-0.212,-4.057,-16.393,-11.323
0.153,-1.113,-0.210,-3.866,-15.787,-10.915
0.149,-1.110,-0.209,-3.640,-15.206,-10.537
0.144,-1.105,-0.207,-3.436,-14.670,-10.198
0.140,-1.101,-0.205,-3.247,-14.200,-9.887
0.135,-1.097,-0.203,-3.099,-13.790,-9.619
0.131,-1.094,-0.201,-2.960,-13.441,-9.373
0.127,-1.091,-0.199,-2.811,-13.148,-9.182
0.124,-1.088,-0.197,-2.656,-12.897,-9.013
0.120,-1.085,-0.196,-2.481,-12.670,-8.887
0.117,-1.083,-0.195,-2.277,-12.467,-8.797
0.114,-1.080,-0.193,-2.088,-12.287,-8.714
0.112,-1.077,-0.192,-1.971,-12.125,-8.611
0.109,-1.074,-0.190,-1.900,-11.974,-8.501
0.107,-1.071,-0.190,-1.836,-11.817,-8.401
0.104,-1.068,-0.189,-1.778,-11.662,-8.285
0.102,-1.065,-0.187,-1.718,-11.518,-8.123
0.100,-1.063,-0.186,-1.638,-11.386,-7.956
0.098,-1.060,-0.185,-1.569,-11.261,-7.834
0.096,-1.057,-0.184,-1.529,-11.127,-7.726
0.094,-1.055,-0.184,-1.507,-10.995,-7.629
0.092,-1.052,-0.183,-1.481,-10.865,-7.550
0.090,-1.050,-0.182,-1.460,-10.736,-7.465
0.089,-1.048,-0.181,-1.462,-10.599,-7.383
0.088,-1.046,-0.180,-1.475,-10.465,-7.297
0.086,-1.044,-0.180,-1.498,-10.328,-7.197
0.085,-1.043,-0.180,-1.519,-10.172,-7.095
0.084,-1.041,-0.181,-1.545,-9.991,-7.007
0.082,-1.039,-0.181,-1.599,-9.813,-6.935
0.081,-1.037,-0.180,-1.685,-9.649,-6.849
0.080,-1.035,-0.180,-1.781,-9.495,-6.764
0.078,-1.034,-0.180,-1.872,-9.346,-6.703
0.077,-1.033,-0.180,-1.965,-9.207,-6.648
0.076,-1.032,-0.180,-2.038,-9.084,-6.601
0.074,-1.031,-0.180,-2.107,-8.972,-6.554
0.073,-1.030,-0.179,-2.173,-8.871,-6.495
0.072,-1.028,-0.179,-2.237,-8.786,-6.406
0.072,-1.027,-0.179,-2.293,-8.698,-6.329
0.071,-1.027,-0.179,-2.317,-8.626,-6.261
0.070,-1.026,-0.179,-2.290,-8.565,-6.176
0.069,-1.025,-0.178,-2.270,-8.530,-6.102
0.068,-1.024,-0.178,-2.257,-8.523,-6.046
0.067,-1.023,-0.177,-2.253,-8.532,-6.002
0.066,-1.023,-0.177,-2.258,-8.588,-5.877
0.065,-1.022,-0.176,-2.236,-8.561,-5.801
0.063,-1.022,-0.175,-2.254,-8.566,-5.757
0.062,-1.022,-0.175,-2.280,-8.640,-5.712
0.061,-1.022,-0.175,-2.325,-8.674,-5.662
0.061,-1.021,-0.175,-2.430,-8.696,-5.566
0.060,-1.021,-0.176,-2.581,-8.713,-5.468
0.059,-1.022,-0.176,-2.740,-8.718,-5.389
0.058,-1.021,-0.177,-2.894,-8.694,-5.292
0.058,-1.021,-0.178,-3.048,-8.715,-5.133
0.057,-1.020,-0.179,-3.238,-8.729,-4.938
0.056,-1.019,-0.180,-3.438,-8.746,-4.716
0.055,-1.019,-0.182,-3.540,-8.760,-4.493
0.054,-1.019,-0.183,-3.588,-8.790,-4.281
0.054,-1.020,-0.184,-3.619,-8.844,-4.102

0.231,-1.681,0.227,7.453,-5.150,-9.397
0.233,-1.636,0.223,27.956,0.377,-10.795
0.217,-1.563,0.211,30.784,5.588,-12.771
0.198,-1.508,0.215,24.553,10.137,-16.130
0.176,-1.494,0.218,7.073,10.799,-21.181
0.157,-1.509,0.215,-9.914,8.480,-29.280
0.132,-1.528,0.216,-15.739,2.981,-26.821
0.145,-1.565,0.202,-15.099,-4.301,-24.513
0.158,-1.582,0.193,-13.447,-7.588,-23.867
0.166,-1.580,0.180,-11.838,-7.743,-22.795
0.163,-1.580,0.173,-10.338,-7.349,-21.789
0.156,-1.577,0.165,-8.220,-6.875,-21.390
0.151,-1.566,0.156,-5.977,-6.374,-21.075
0.150,-1.554,0.149,-4.257,-5.604,-20.355
0.147,-1.542,0.145,-2.834,-4.482,-19.089
0.143,-1.529,0.142,-1.141,-3.903,-17.134
0.139,-1.516,0.142,1.346,-3.741,-15.242
0.135,-1.500,0.146,4.385,-3.738,-13.701
0.129,-1.482,0.150,7.263,-3.766,-12.320
0.123,-1.462,0.155,9.678,-3.663,-11.156
0.117,-1.441,0.158,11.587,-3.480,-10.177
0.113,-1.419,0.160,12.989,-3.246,-9.392
0.108,-1.398,0.161,14.057,-2.884,-8.677
0.104,-1.377,0.161,14.689,-2.283,-7.951
0.099,-1.358,0.161,14.984,-1.647,-7.220
0.093,-1.340,0.161,14.933,-1.088,-6.590
0.088,-1.323,0.160,14.690,-0.613,-6.031
0.083,-1.307,0.159,14.280,-0.255,-5.557
0.078,-1.293,0.158,13.666,0.049,-5.189
0.073,-1.281,0.157,12.943,0.336,-4.881
0.069,-1.269,0.155,12.205,0.573,-4.603
0.065,-1.259,0.152,11.496,0.736,-4.401
0.062,-1.249,0.150,10.784,0.842,-4.229
0.059,-1.239,0.149,10.024,0.917,-4.124
0.056,-1.230,0.147,9.217,0.971,-4.082
0.054,-1.222,0.145,8.375,0.994,-4.081
0.051,-1.215,0.144,7.554,0.885,-4.130
0.049,-1.208,0.143,6.784,0.794,-4.036
0.047,-1.201,0.142,5.977,0.654,-4.007
0.044,-1.195,0.140,5.269,0.394,-4.068
0.042,-1.190,0.139,4.618,0.007,-4.141
0.040,-1.185,0.137,4.018,-0.366,-4.170
0.039,-1.181,0.136,3.509,-0.725,-4.145
0.037,-1.177,0.135,3.061,-1.113,-4.121
0.035,-1.173,0.134,2.601,-1.540,-4.151
0.033,-1.168,0.133,2.134,-1.966,-4.264
0.031,-1.165,0.132,1.685,-2.330,-4.478
0.031,-1.162,0.131,1.318,-2.596,-4.723
0.030,-1.159,0.131,1.000,-2.792,-4.935
0.028,-1.156,0.130,0.746,-2.931,-5.090
0.027,-1.153,0.129,0.601,-3.032,-5.215
0.027,-1.150,0.128,0.488,-3.093,-5.316
0.026,-1.146,0.129,0.350,-3.105,-5.350
0.025,-1.143,0.128,0.204,-3.088,-5.351
0.024,-1.139,0.128,0.112,-3.040,-5.333
0.023,-1.136,0.128,0.050,-2.928,-5.283
0.022,-1.132,0.128,0.030,-2.785,-5.178
0.020,-1.127,0.128,0.054,-2.632,-5.047
0.019,-1.123,0.128,0.065,-2.449,-4.941
0.018,-1.119,0.128,0.042,-2.242,-4.837
0.017,-1.116,0.128,0.019,-2.041,-4.723
0.016,-1.112,0.128,0.029,-1.852,-4.623
0.015,-1.109,0.128,0.047,-1.685,-4.514
0.014,-1.105,0.127,0.050,-1.546,-4.388
0.012,-1.102,0.127,0.021,-1.419,-4.237
0.011,-1.099,0.127,-0.021,-1.312,-4.040
0.009,-1.096,0.126,-0.056,-1.222,-3.851
0.008,-1.093,0.125,-0.093,-1.179,-3.672
0.006,-1.090,0.125,-0.139,-1.142,-3.532
0.005,-1.087,0.124,-0.213,-1.101,-3.425
0.003,-1.084,0.123,-0.285,-1.052,-3.326
0.002,-1.081,0.122,-0.355,-1.003,-3.246
0.000,-1.078,0.121,-0.410,-0.959,-3.178
-0.001,-1.075,0.120,-0.474,-0.923,-3.106
-0.002,-1.073,0.120,-0.526,-0.900,-3.055
-0.003,-1.071,0.120,-0.541,-0.904,-3.039
-0.004,-1.068,0.119,-0.567,-0.943,-3.014
-0.005,-1.065,0.119,-0.604,-1.012,-2.948
-0.006,-1.062,0.118,-0.643,-1.084,-2.872
-0.006,-1.060,0.117,-0.651,-1.153,-2.852
-0.007,-1.058,0.116,-0.645,-1.208,-2.885
-0.008,-1.056,0.115,-0.654,-1.246,-2.936
-0.008,-1.053,0.114,-0.682,-1.276,-2.986
-0.008,-1.050,0.112,-0.729,-1.290,-3.053
-0.008,-1.047,0.111,-0.793,-1.278,-3.143
-0.008,-1.045,0.110,-0.879,-1.248,-3.254
-0.007,-1.043,0.110,-0.963,-1.218,-3.369
-0.007,-1.041,0.109,-1.042,-1.213,-3.438
-0.008,-1.039,0.109,-1.104,-1.231,-3.452
-0.008,-1.037,0.108,-1.155,-1.270,-3.450
-0.008,-1.036,0.108,-1.216,-1.326,-3.462
-0.008,-1.035,0.107,-1.278,-1.389,-3.497
-0.009,-1.034,0.106,-1.327,-1.465,-3.577
-0.009,-1.033,0.106,-1.381,-1.555,-3.674
-0.009,-1.032,0.105,-1.442,-1.652,-3.763
-0.009,-1.031,0.104,-1.497,-1.744,-3.844
-0.009,-1.031,0.104,-1.537,-1.844,-3.956
-0.008,-1.031,0.104,-1.570,-1.958,-4.056
-0.008,-1.031,0.103,-1.607,-2.068,-4.141
-0.008,-1.031,0.103,-1.652,-2.180,-4.221
-0.007,-1.031,0.103,-1.702,-2.295,-4.273
-0.006,-1.031,0.103,-1.758,-2.403,-4.286
-0.006,-1.031,0.103,-1.790,-2.505,-4.269
-0.006,-1.032,0.103,-1.773,-2.606,-4.249
-0.006,-1.033,0.103,-1.726,-2.714,-4.213
-0.005,-1.034,0.103,-1.699,-2.819,-4.180
-0.005,-1.034,0.103,-1.742,-2.911,-4.138
-0.004,-1.035,0.103,-1.829,-3.002,-4.090
-0.004,-1.035,0.103,-1.947,-3.088,-4.043
-0.003,-1.036,0.103,-2.099,-3.171,-3.992
-0.003,-1.037,0.104,-2.272,-3.261,-3.932
-0.003,-1.037,0.104,-2.461,-3.353,-3.877
-0.003,-1.037,0.104,-2.688,-3.459,-3.839
-0.002,-1.036,0.105,-2.962,-3.585,-3.782
-0.002,-1.036,0.105,-3.247,-3.729,-3.728
-0.002,-1.037,0.106,-3.545,-3.890,-3.700
-0.002,-1.037,0.106,-3.840,-4.061,-3.716
-0.001,-1.037,0.106,-4.105,-4.252,-3.783
-0.001,-1.037,0.106,-4.346,-4.447,-3.862

0.151,-1.529,0.580,-25.227,-2.338,-23.066
0.200,-1.680,0.566,-11.913,7.139,-20.875
0.211,-1.753,0.584,29.000,6.114,-19.227
0.193,-1.728,0.602,67.664,-0.904,-15.669
0.179,-1.642,0.601,69.970,-0.441,-13.532
0.173,-1.571,0.593,60.923,6.618,-14.020
0.150,-1.543,0.593,34.496,10.006,-19.001
0.129,-1.544,0.589,2.358,10.069,-30.347
0.118,-1.551,0.577,-21.863,9.416,-47.624
0.117,-1.556,0.570,-38.347,8.326,-50.457
0.135,-1.581,0.555,-43.565,7.247,-49.381
0.145,-1.615,0.538,-43.475,7.220,-47.249
0.147,-1.638,0.519,-40.086,7.293,-43.958
0.140,-1.647,0.502,-33.264,6.832,-41.731
0.129,-1.634,0.489,-27.669,6.446,-39.657
0.125,-1.614,0.475,-24.591,6.456,-38.090
0.125,-1.595,0.462,-22.984,7.063,-36.517
0.124,-1.580,0.451,-21.922,7.779,-34.947
0.120,-1.567,0.442,-20.520,8.196,-33.130
0.116,-1.555,0.434,-18.494,8.421,-30.735
0.115,-1.542,0.428,-15.670,8.523,-27.946
0.114,-1.528,0.424,-12.484,8.584,-24.949
0.113,-1.509,0.420,-9.270,8.577,-22.124
0.109,-1.486,0.417,-6.534,8.555,-19.787
0.104,-1.461,0.414,-4.531,8.662,-17.888
0.099,-1.437,0.412,-3.260,8.896,-16.245
0.093,-1.413,0.409,-2.563,9.170,-14.709
0.088,-1.391,0.405,-2.227,9.402,-13.279
0.082,-1.371,0.401,-2.012,9.547,-11.944
0.076,-1.353,0.397,-1.890,9.626,-10.756
0.070,-1.335,0.392,-1.841,9.635,-9.795
0.064,-1.319,0.388,-1.904,9.648,-9.167
0.057,-1.303,0.383,-2.066,9.663,-8.661
0.051,-1.289,0.379,-2.325,9.622,-8.235
0.046,-1.275,0.374,-2.691,9.535,-7.853
0.041,-1.262,0.370,-3.204,9.430,-7.545
0.036,-1.251,0.365,-3.774,9.271,-7.221
0.032,-1.241,0.360,-4.340,8.966,-6.913
0.028,-1.232,0.355,-4.814,8.541,-6.660
0.024,-1.223,0.349,-5.224,8.037,-6.447
0.020,-1.215,0.344,-5.705,7.503,-6.307
0.015,-1.208,0.339,-6.230,6.902,-6.225
0.012,-1.201,0.335,-6.811,6.243,-6.196
0.008,-1.194,0.330,-7.443,5.591,-6.201
0.005,-1.188,0.325,-8.089,4.958,-6.214
0.003,-1.183,0.320,-8.777,4.408,-6.231
0.000,-1.178,0.315,-9.442,3.924,-6.244
-0.002,-1.173,0.310,-10.078,3.481,-6.222
-0.004,-1.168,0.305,-10.623,3.091,-6.179
-0.006,-1.164,0.300,-11.137,2.730,-6.091
-0.009,-1.160,0.295,-11.587,2.399,-5.976
-0.010,-1.155,0.291,-11.944,2.057,-5.755
-0.012,-1.151,0.285,-12.125,1.709,-5.245
-0.013,-1.148,0.282,-12.276,1.444,-4.906
-0.016,-1.144,0.278,-12.345,1.137,-4.677
-0.018,-1.140,0.274,-12.320,0.754,-4.475
-0.019,-1.137,0.270,-12.294,0.498,-4.322
-0.020,-1.134,0.266,-12.268,0.307,-4.211
-0.022,-1.131,0.262,-12.166,0.134,-4.161
-0.023,-1.128,0.258,-12.009,-0.023,-4.171
-0.024,-1.124,0.254,-11.818,-0.121,-4.172
-0.025,-1.120,0.251,-11.594,-0.213,-4.108
-0.026,-1.116,0.248,-11.336,-0.304,-4.032
-0.026,-1.113,0.245,-11.033,-0.396,-3.945
-0.027,-1.109,0.243,-10.709,-0.488,-3.852
-0.028,-1.105,0.241,-10.378,-0.577,-3.758
-0.028,-1.102,0.239,-10.058,-0.670,-3.676
-0.029,-1.098,0.236,-9.737,-0.762,-3.600
-0.029,-1.095,0.234,-9.396,-0.854,-3.519
-0.029,-1.091,0.232,-9.040,-0.945,-3.442
-0.030,-1.088,0.230,-8.676,-1.058,-3.357
-0.030,-1.084,0.228,-8.316,-1.192,-3.252
-0.031,-1.081,0.226,-7.994,-1.343,-3.137
-0.032,-1.078,0.223,-7.715,-1.533,-3.004
-0.033,-1.074,0.221,-7.463,-1.742,-2.859
-0.034,-1.071,0.219,-7.263,-1.964,-2.728
-0.034,-1.068,0.217,-7.086,-2.188,-2.627
-0.035,-1.066,0.215,-6.913,-2.430,-2.549
-0.036,-1.063,0.213,-6.735,-2.684,-2.535
-0.037,-1.060,0.211,-6.570,-2.930,-2.558
-0.038,-1.057,0.209,-6.416,-3.175,-2.598
-0.039,-1.055,0.208,-6.269,-3.420,-2.648
-0.039,-1.053,0.206,-6.100,-3.651,-2.757
-0.040,-1.050,0.205,-5.979,-3.794,-2.907
-0.041,-1.048,0.203,-5.877,-3.964,-3.017
-0.041,-1.046,0.202,-5.776,-4.150,-3.100
-0.042,-1.045,0.200,-5.690,-4.319,-3.182
-0.042,-1.043,0.199,-5.603,-4.532,-3.246
-0.041,-1.042,0.197,-5.504,-4.678,-3.231
-0.041,-1.041,0.196,-5.394,-4.812,-3.230
-0.042,-1.040,0.195,-5.252,-4.989,-3.225
-0.041,-1.039,0.193,-5.108,-5.148,-3.208
-0.041,-1.038,0.192,-5.029,-5.241,-3.194
-0.041,-1.037,0.191,-4.986,-5.284,-3.218
-0.041,-1.036,0.190,-4.978,-5.352,-3.239
-0.041,-1.036,0.189,-4.926,-5.438,-3.267
-0.041,-1.036,0.188,-4.875,-5.504,-3.293
-0.041,-1.036,0.187,-4.829,-5.536,-3.318
-0.041,-1.035,0.186,-4.803,-5.543,-3.339
-0.041,-1.035,0.184,-4.743,-5.561,-3.323
-0.040,-1.034,0.184,-4.638,-5.577,-3.297
-0.041,-1.033,0.183,-4.529,-5.601,-3.263
-0.041,-1.032,0.183,-4.431,-5.629,-3.221
-0.042,-1.030,0.182,-4.340,-5.661,-3.196
-0.042,-1.029,0.182,-4.241,-5.687,-3.196
-0.042,-1.028,0.182,-4.129,-5.699,-3.206
-0.042,-1.027,0.181,-4.028,-5.697,-3.208
-0.042,-1.026,0.181,-3.922,-5.700,-3.201
-0.042,-1.025,0.180,-3.825,-5.708,-3.181
-0.042,-1.024,0.179,-3.749,-5.722,-3.142
-0.042,-1.022,0.179,-3.683,-5.752,-3.094
-0.042,-1.021,0.178,-3.626,-5.785,-3.060
-0.042,-1.020,0.177,-3.575,-5.834,-3.042
-0.042,-1.018,0.176,-3.557,-5.889,-3.052
-0.042,-1.017,0.176,-3.563,-5.951,-3.078
-0.042,-1.016,0.175,-3.621,-6.026,-3.102
-0.042,-1.015,0.175,-3.729,-6.119,-3.130
-0.042,-1.015,0.174,-3.877,-6.211,-3.182
-0.041,-1.014,0.173,-4.044,-6.283,-3.254

0.041,-1.842,0.300,18.757,-5.218,-3.512
0.035,-1.816,0.279,42.211,-4.367,5.417
0.026,-1.715,0.247,44.947,-2.126,5.242
0.023,-1.664,0.247,39.710,1.071,-1.133
0.010,-1.652,0.253,20.560,3.008,-8.921
0.005,-1.663,0.245,1.367,4.320,-16.678
0.005,-1.680,0.228,-4.692,3.225,-24.549
-0.001,-1.681,0.220,-5.098,-0.082,-32.144
0.006,-1.679,0.209,-5.178,-2.355,-31.723
0.018,-1.694,0.201,-3.820,-2.886,-29.838
0.024,-1.706,0.194,-0.731,-2.643,-27.688
0.024,-1.697,0.189,1.830,-2.188,-26.412
0.026,-1.677,0.186,2.753,-1.709,-25.446
0.031,-1.655,0.183,3.083,-1.522,-24.163
0.033,-1.636,0.182,3.251,-1.386,-22.488
0.033,-1.618,0.182,3.611,-1.314,-21.061
0.031,-1.601,0.183,4.392,-1.368,-20.099
0.030,-1.585,0.186,5.416,-1.437,-19.452
0.032,-1.566,0.188,6.390,-1.458,-18.924
0.035,-1.547,0.189,7.155,-1.547,-18.273
0.036,-1.528,0.190,7.716,-1.717,-17.599
0.037,-1.510,0.191,8.184,-1.921,-16.918
0.037,-1.491,0.192,8.567,-2.105,-16.191
0.037,-1.473,0.191,8.840,-2.274,-15.306
0.037,-1.454,0.190,8.964,-2.515,-14.262
0.036,-1.436,0.190,8.956,-2.823,-13.291
0.032,-1.418,0.188,8.750,-3.211,-12.615
0.029,-1.400,0.186,8.355,-3.703,-12.187
0.026,-1.384,0.184,7.796,-4.235,-11.907
0.024,-1.369,0.183,7.204,-4.730,-11.590
0.022,-1.355,0.181,6.638,-5.130,-11.198
0.020,-1.341,0.180,6.116,-5.483,-10.736
0.017,-1.328,0.178,5.658,-5.816,-10.271
0.015,-1.315,0.177,5.197,-6.132,-9.808
0.012,-1.303,0.176,4.685,-6.435,-9.339
0.010,-1.292,0.175,4.134,-6.710,-8.945
0.007,-1.282,0.173,3.520,-6.975,-8.755
0.004,-1.272,0.171,2.886,-7.244,-8.653
0.002,-1.263,0.170,2.289,-7.555,-8.512
0.001,-1.255,0.170,1.696,-7.701,-8.307
-0.001,-1.247,0.167,1.130,-7.882,-8.194
-0.004,-1.240,0.166,0.626,-8.109,-8.153
-0.006,-1.232,0.164,0.112,-8.294,-8.110
-0.006,-1.225,0.161,-0.430,-8.329,-8.035
-0.007,-1.219,0.159,-0.987,-8.298,-7.885
-0.008,-1.214,0.157,-1.387,-8.266,-7.649
-0.008,-1.210,0.155,-1.617,-8.211,-7.347
-0.009,-1.205,0.154,-1.719,-8.115,-7.038
-0.010,-1.200,0.152,-1.765,-7.981,-6.828
-0.011,-1.195,0.150,-1.799,-7.825,-6.676
-0.011,-1.190,0.148,-1.778,-7.635,-6.534
-0.010,-1.185,0.146,-1.668,-7.401,-6.364
-0.010,-1.180,0.145,-1.536,-7.154,-6.196
-0.009,-1.174,0.144,-1.447,-6.923,-6.071
-0.009,-1.169,0.144,-1.347,-6.689,-5.911
-0.009,-1.163,0.142,-1.233,-6.450,-5.731
-0.008,-1.158,0.141,-1.108,-6.212,-5.559
-0.008,-1.153,0.140,-0.984,-5.969,-5.399
-0.007,-1.147,0.140,-0.901,-5.715,-5.263
-0.007,-1.142,0.140,-0.855,-5.477,-5.127
-0.007,-1.137,0.140,-0.832,-5.273,-4.965
-0.007,-1.132,0.140,-0.842,-5.113,-4.766
-0.007,-1.127,0.140,-0.870,-4.970,-4.582
-0.006,-1.123,0.139,-0.942,-4.808,-4.443
-0.006,-1.119,0.139,-1.008,-4.637,-4.377
-0.006,-1.115,0.138,-1.071,-4.493,-4.334
-0.005,-1.110,0.138,-1.151,-4.399,-4.279
-0.005,-1.106,0.138,-1.253,-4.328,-4.199
-0.005,-1.103,0.138,-1.325,-4.271,-4.115
-0.005,-1.100,0.137,-1.357,-4.233,-4.057
-0.005,-1.097,0.137,-1.369,-4.214,-4.046
-0.005,-1.094,0.136,-1.395,-4.200,-4.092
-0.005,-1.090,0.136,-1.413,-4.189,-4.162
-0.005,-1.087,0.136,-1.420,-4.205,-4.218
-0.005,-1.084,0.136,-1.437,-4.242,-4.235
-0.005,-1.082,0.135,-1.452,-4.312,-4.258
-0.005,-1.080,0.135,-1.446,-4.399,-4.287
-0.005,-1.079,0.134,-1.421,-4.454,-4.330
-0.005,-1.076,0.134,-1.389,-4.491,-4.396
-0.004,-1.074,0.133,-1.382,-4.511,-4.454
-0.004,-1.073,0.133,-1.388,-4.515,-4.483
-0.003,-1.072,0.132,-1.366,-4.505,-4.487
-0.003,-1.071,0.132,-1.302,-4.494,-4.486
-0.003,-1.069,0.131,-1.245,-4.476,-4.477
-0.003,-1.068,0.131,-1.209,-4.456,-4.477
-0.002,-1.066,0.131,-1.192,-4.422,-4.463
-0.003,-1.065,0.131,-1.179,-4.386,-4.425
-0.003,-1.064,0.130,-1.165,-4.363,-4.364
-0.004,-1.062,0.130,-1.125,-4.364,-4.280
-0.004,-1.061,0.130,-1.090,-4.363,-4.158
-0.004,-1.060,0.129,-1.054,-4.350,-4.034
-0.004,-1.058,0.128,-1.008,-4.327,-3.926
-0.004,-1.057,0.127,-0.955,-4.287,-3.810
-0.005,-1.055,0.127,-0.898,-4.224,-3.680
-0.005,-1.053,0.126,-0.850,-4.149,-3.549
-0.005,-1.051,0.125,-0.802,-4.067,-3.427
-0.005,-1.049,0.124,-0.754,-3.968,-3.321
-0.005,-1.047,0.124,-0.729,-3.864,-3.222
-0.005,-1.046,0.123,-0.723,-3.770,-3.111
-0.005,-1.045,0.123,-0.717,-3.692,-2.986
-0.005,-1.043,0.122,-0.689,-3.610,-2.862
-0.005,-1.042,0.121,-0.644,-3.513,-2.793
-0.005,-1.040,0.121,-0.624,-3.427,-2.750
-0.004,-1.039,0.121,-0.609,-3.347,-2.674
-0.004,-1.038,0.120,-0.592,-3.267,-2.571
-0.004,-1.037,0.120,-0.556,-3.219,-2.450
-0.003,-1.035,0.119,-0.511,-3.183,-2.337
-0.003,-1.034,0.118,-0.466,-3.136,-2.232
-0.003,-1.032,0.118,-0.412,-3.076,-2.135
-0.003,-1.031,0.118,-0.372,-3.021,-2.064
-0.003,-1.029,0.118,-0.377,-2.961,-2.059
-0.002,-1.028,0.117,-0.408,-2.895,-2.105
-0.002,-1.027,0.117,-0.455,-2.827,-2.173
-0.002,-1.026,0.117,-0.512,-2.769,-2.236
-0.002,-1.025,0.116,-0.659,-2.733,-2.323
-0.001,-1.025,0.117,-0.861,-2.712,-2.423
0.000,-1.025,0.117,-1.221,-2.672,-2.474
0.001,-1.026,0.117,-1.655,-2.650,-2.482
0.002,-1.027,0.118,-2.137,-2.684,-2.440

-0.021,-1.786,0.196,21.940,-3.005,-7.021
-0.030,-1.780,0.196,37.400,-1.635,-7.356
-0.036,-1.735,0.197,43.674,1.372,-6.393
-0.042,-1.669,0.198,44.921,6.664,-8.450
-0.075,-1.607,0.220,36.648,11.745,-13.838
-0.077,-1.580,0.216,10.644,8.945,-15.046
-0.078,-1.572,0.226,-26.349,4.363,-16.279
-0.071,-1.584,0.238,-58.197,1.153,-17.973
-0.052,-1.623,0.241,-70.377,0.225,-16.798
-0.041,-1.655,0.234,-70.068,0.499,-15.544
-0.045,-1.667,0.219,-66.258,0.313,-14.584
-0.053,-1.656,0.206,-59.002,0.091,-12.707
-0.059,-1.634,0.190,-52.881,0.470,-10.650
-0.064,-1.610,0.175,-48.458,1.140,-9.473
-0.065,-1.588,0.163,-45.117,1.853,-8.659
-0.064,-1.570,0.157,-42.444,2.605,-7.705
-0.061,-1.554,0.152,-40.069,2.544,-6.186
-0.059,-1.541,0.150,-37.589,2.810,-4.695
-0.059,-1.527,0.149,-34.702,2.896,-3.851
-0.063,-1.511,0.148,-31.306,2.822,-3.459
-0.067,-1.494,0.147,-27.514,2.738,-3.397
-0.067,-1.475,0.146,-23.704,2.599,-3.394
-0.067,-1.454,0.146,-20.375,2.499,-3.365
-0.067,-1.432,0.146,-17.734,2.409,-3.349
-0.068,-1.410,0.145,-15.913,2.332,-3.268
-0.070,-1.390,0.144,-14.674,2.232,-3.060
-0.072,-1.373,0.144,-13.830,2.097,-2.772
-0.073,-1.356,0.143,-13.158,1.916,-2.530
-0.079,-1.340,0.143,-12.700,1.645,-2.336
-0.080,-1.324,0.142,-12.448,1.291,-2.177
-0.080,-1.309,0.141,-12.465,0.824,-1.965
-0.080,-1.296,0.140,-12.665,0.280,-1.763
-0.081,-1.284,0.137,-12.970,-0.294,-1.702
-0.082,-1.273,0.135,-13.453,-0.682,-1.815
-0.083,-1.261,0.131,-14.201,-0.946,-2.030
-0.083,-1.250,0.128,-15.094,-1.232,-2.322
-0.083,-1.241,0.125,-16.117,-1.575,-2.666
-0.083,-1.233,0.121,-17.228,-1.970,-3.050
-0.082,-1.226,0.118,-18.234,-2.346,-3.428
-0.082,-1.219,0.114,-19.100,-2.655,-3.811
-0.082,-1.213,0.111,-19.773,-2.966,-4.176
-0.081,-1.206,0.107,-20.224,-3.291,-4.487
-0.081,-1.200,0.104,-20.449,-3.475,-4.584
-0.080,-1.196,0.101,-20.689,-3.656,-4.777
-0.081,-1.192,0.098,-20.696,-3.910,-5.022
